"rt","stimulus","key_press","type","part","color","position","trial_type","trial_index","time_elapsed","internal_node_id","subject","accuracy"
"718.0000000000073","<svg height=""787"" width=""1390""><rect height=""78.7"" width=""78.7""y=""354.15""x=""347.5"" fill=""green""/></svg>","83","stim_present","training","green","left","html-keyboard-response","3","40627","0.0-2.0-0.0-1.0","g03u","true"
"545","<svg height=""787"" width=""1390""><rect height=""78.7"" width=""78.7""y=""354.15""x=""655.65"" fill=""red""/></svg>","76","stim_present","training","red","middle","html-keyboard-response","5","41676","0.0-2.0-0.0-1.1","g03u","true"
"509.9999999999927","<svg height=""787"" width=""1390""><rect height=""78.7"" width=""78.7""y=""354.15""x=""347.5"" fill=""red""/></svg>","76","stim_present","training","red","left","html-keyboard-response","7","42688","0.0-2.0-0.0-1.2","g03u","true"
"396","<svg height=""787"" width=""1390""><rect height=""78.7"" width=""78.7""y=""354.15""x=""1042.5"" fill=""red""/></svg>","76","stim_present","training","red","right","html-keyboard-response","9","43587","0.0-2.0-0.0-1.3","g03u","true"
"400","<svg height=""787"" width=""1390""><rect height=""78.7"" width=""78.7""y=""354.15""x=""655.65"" fill=""green""/></svg>","83","stim_present","training","green","middle","html-keyboard-response","11","44490","0.0-2.0-0.0-1.4","g03u","true"
"671","<svg height=""787"" width=""1390""><rect height=""78.7"" width=""78.7""y=""354.15""x=""1042.5"" fill=""green""/></svg>","83","stim_present","training","green","right","html-keyboard-response","13","45664","0.0-2.0-0.0-1.5","g03u","true"
"1145.0000000000073","<svg height=""787"" width=""1390""><rect height=""78.7"" width=""78.7""y=""354.15""x=""1042.5"" fill=""red""/></svg>","76","stim_present","training","red","right","html-keyboard-response","15","47312","0.0-2.0-0.0-1.6","g03u","true"
"486.9999999999927","<svg height=""787"" width=""1390""><rect height=""78.7"" width=""78.7""y=""354.15""x=""655.65"" fill=""green""/></svg>","83","stim_present","training","green","middle","html-keyboard-response","17","48302","0.0-2.0-0.0-1.7","g03u","true"
"535","<svg height=""787"" width=""1390""><rect height=""78.7"" width=""78.7""y=""354.15""x=""1042.5"" fill=""green""/></svg>","83","stim_present","training","green","right","html-keyboard-response","19","49340","0.0-2.0-0.0-1.8","g03u","true"
"303","<svg height=""787"" width=""1390""><rect height=""78.7"" width=""78.7""y=""354.15""x=""347.5"" fill=""green""/></svg>","83","stim_present","training","green","left","html-keyboard-response","21","50146","0.0-2.0-0.0-1.9","g03u","true"
"449","<svg height=""787"" width=""1390""><rect height=""78.7"" width=""78.7""y=""354.15""x=""347.5"" fill=""red""/></svg>","76","stim_present","training","red","left","html-keyboard-response","23","51098","0.0-2.0-0.0-1.10","g03u","true"
"624","<svg height=""787"" width=""1390""><rect height=""78.7"" width=""78.7""y=""354.15""x=""655.65"" fill=""red""/></svg>","76","stim_present","training","red","middle","html-keyboard-response","25","52225","0.0-2.0-0.0-1.11","g03u","true"
"569","<svg height=""787"" width=""1390""><rect height=""78.7"" width=""78.7""y=""354.15""x=""1042.5"" fill=""green""/></svg>","83","stim_present","test","green","right","html-keyboard-response","28","66034","0.0-3.0-0.0-1.0","g03u","true"
"335","<svg height=""787"" width=""1390""><rect height=""78.7"" width=""78.7""y=""354.15""x=""655.65"" fill=""green""/></svg>","83","stim_present","test","green","middle","html-keyboard-response","30","66871","0.0-3.0-0.0-1.1","g03u","true"
"307","<svg height=""787"" width=""1390""><rect height=""78.7"" width=""78.7""y=""354.15""x=""347.5"" fill=""green""/></svg>","83","stim_present","test","green","left","html-keyboard-response","32","67681","0.0-3.0-0.0-1.2","g03u","true"
"332","<svg height=""787"" width=""1390""><rect height=""78.7"" width=""78.7""y=""354.15""x=""1042.5"" fill=""red""/></svg>","76","stim_present","test","red","right","html-keyboard-response","34","68517","0.0-3.0-0.0-1.3","g03u","true"
"354","<svg height=""787"" width=""1390""><rect height=""78.7"" width=""78.7""y=""354.15""x=""655.65"" fill=""red""/></svg>","76","stim_present","test","red","middle","html-keyboard-response","36","69374","0.0-3.0-0.0-1.4","g03u","true"
"351","<svg height=""787"" width=""1390""><rect height=""78.7"" width=""78.7""y=""354.15""x=""347.5"" fill=""red""/></svg>","76","stim_present","test","red","left","html-keyboard-response","38","70228","0.0-3.0-0.0-1.5","g03u","true"
"442","<svg height=""787"" width=""1390""><rect height=""78.7"" width=""78.7""y=""354.15""x=""1042.5"" fill=""green""/></svg>","83","stim_present","test","green","right","html-keyboard-response","40","71173","0.0-3.0-0.0-1.6","g03u","true"
"378","<svg height=""787"" width=""1390""><rect height=""78.7"" width=""78.7""y=""354.15""x=""1042.5"" fill=""red""/></svg>","76","stim_present","test","red","right","html-keyboard-response","42","72054","0.0-3.0-0.0-1.7","g03u","true"
"442","<svg height=""787"" width=""1390""><rect height=""78.7"" width=""78.7""y=""354.15""x=""347.5"" fill=""red""/></svg>","76","stim_present","test","red","left","html-keyboard-response","44","72999","0.0-3.0-0.0-1.8","g03u","true"
"423","<svg height=""787"" width=""1390""><rect height=""78.7"" width=""78.7""y=""354.15""x=""655.65"" fill=""green""/></svg>","83","stim_present","test","green","middle","html-keyboard-response","46","73925","0.0-3.0-0.0-1.9","g03u","true"
"365","<svg height=""787"" width=""1390""><rect height=""78.7"" width=""78.7""y=""354.15""x=""655.65"" fill=""red""/></svg>","76","stim_present","test","red","middle","html-keyboard-response","48","74793","0.0-3.0-0.0-1.10","g03u","true"
"518","<svg height=""787"" width=""1390""><rect height=""78.7"" width=""78.7""y=""354.15""x=""347.5"" fill=""green""/></svg>","83","stim_present","test","green","left","html-keyboard-response","50","75814","0.0-3.0-0.0-1.11","g03u","true"
"375","<svg height=""787"" width=""1390""><rect height=""78.7"" width=""78.7""y=""354.15""x=""347.5"" fill=""red""/></svg>","76","stim_present","test","red","left","html-keyboard-response","52","76692","0.0-3.0-0.0-1.12","g03u","true"
"512","<svg height=""787"" width=""1390""><rect height=""78.7"" width=""78.7""y=""354.15""x=""655.65"" fill=""red""/></svg>","76","stim_present","test","red","middle","html-keyboard-response","54","77705","0.0-3.0-0.0-1.13","g03u","true"
"305","<svg height=""787"" width=""1390""><rect height=""78.7"" width=""78.7""y=""354.15""x=""1042.5"" fill=""red""/></svg>","76","stim_present","test","red","right","html-keyboard-response","56","78513","0.0-3.0-0.0-1.14","g03u","true"
"334","<svg height=""787"" width=""1390""><rect height=""78.7"" width=""78.7""y=""354.15""x=""347.5"" fill=""green""/></svg>","83","stim_present","test","green","left","html-keyboard-response","58","79350","0.0-3.0-0.0-1.15","g03u","true"
"342","<svg height=""787"" width=""1390""><rect height=""78.7"" width=""78.7""y=""354.15""x=""1042.5"" fill=""green""/></svg>","83","stim_present","test","green","right","html-keyboard-response","60","80195","0.0-3.0-0.0-1.16","g03u","true"
"265","<svg height=""787"" width=""1390""><rect height=""78.7"" width=""78.7""y=""354.15""x=""655.65"" fill=""green""/></svg>","83","stim_present","test","green","middle","html-keyboard-response","62","80964","0.0-3.0-0.0-1.17","g03u","true"
"535","<svg height=""787"" width=""1390""><rect height=""78.7"" width=""78.7""y=""354.15""x=""1042.5"" fill=""red""/></svg>","76","stim_present","test","red","right","html-keyboard-response","64","82001","0.0-3.0-0.0-1.18","g03u","true"
"428","<svg height=""787"" width=""1390""><rect height=""78.7"" width=""78.7""y=""354.15""x=""655.65"" fill=""green""/></svg>","83","stim_present","test","green","middle","html-keyboard-response","66","82932","0.0-3.0-0.0-1.19","g03u","true"
"390","<svg height=""787"" width=""1390""><rect height=""78.7"" width=""78.7""y=""354.15""x=""347.5"" fill=""red""/></svg>","83","stim_present","test","red","left","html-keyboard-response","68","83825","0.0-3.0-0.0-1.20","g03u","false"
"791.0000000000146","<svg height=""787"" width=""1390""><rect height=""78.7"" width=""78.7""y=""354.15""x=""655.65"" fill=""red""/></svg>","76","stim_present","test","red","middle","html-keyboard-response","70","85120","0.0-3.0-0.0-1.21","g03u","true"
"406.99999999998545","<svg height=""787"" width=""1390""><rect height=""78.7"" width=""78.7""y=""354.15""x=""347.5"" fill=""green""/></svg>","83","stim_present","test","green","left","html-keyboard-response","72","86029","0.0-3.0-0.0-1.22","g03u","true"
"645","<svg height=""787"" width=""1390""><rect height=""78.7"" width=""78.7""y=""354.15""x=""1042.5"" fill=""green""/></svg>","83","stim_present","test","green","right","html-keyboard-response","74","87178","0.0-3.0-0.0-1.23","g03u","true"
"410","<svg height=""787"" width=""1390""><rect height=""78.7"" width=""78.7""y=""354.15""x=""655.65"" fill=""green""/></svg>","83","stim_present","test","green","middle","html-keyboard-response","76","88090","0.0-3.0-0.0-1.24","g03u","true"
"472","<svg height=""787"" width=""1390""><rect height=""78.7"" width=""78.7""y=""354.15""x=""1042.5"" fill=""green""/></svg>","83","stim_present","test","green","right","html-keyboard-response","78","89066","0.0-3.0-0.0-1.25","g03u","true"
"398","<svg height=""787"" width=""1390""><rect height=""78.7"" width=""78.7""y=""354.15""x=""655.65"" fill=""red""/></svg>","76","stim_present","test","red","middle","html-keyboard-response","80","89966","0.0-3.0-0.0-1.26","g03u","true"
"380.00000000001455","<svg height=""787"" width=""1390""><rect height=""78.7"" width=""78.7""y=""354.15""x=""1042.5"" fill=""red""/></svg>","76","stim_present","test","red","right","html-keyboard-response","82","90849","0.0-3.0-0.0-1.27","g03u","true"
"442.99999999998545","<svg height=""787"" width=""1390""><rect height=""78.7"" width=""78.7""y=""354.15""x=""347.5"" fill=""red""/></svg>","76","stim_present","test","red","left","html-keyboard-response","84","91794","0.0-3.0-0.0-1.28","g03u","true"
"360","<svg height=""787"" width=""1390""><rect height=""78.7"" width=""78.7""y=""354.15""x=""347.5"" fill=""green""/></svg>","83","stim_present","test","green","left","html-keyboard-response","86","92658","0.0-3.0-0.0-1.29","g03u","true"
"392","<svg height=""787"" width=""1390""><rect height=""78.7"" width=""78.7""y=""354.15""x=""655.65"" fill=""red""/></svg>","76","stim_present","test","red","middle","html-keyboard-response","88","93553","0.0-3.0-0.0-1.30","g03u","true"
"378","<svg height=""787"" width=""1390""><rect height=""78.7"" width=""78.7""y=""354.15""x=""1042.5"" fill=""red""/></svg>","76","stim_present","test","red","right","html-keyboard-response","90","94434","0.0-3.0-0.0-1.31","g03u","true"
"324","<svg height=""787"" width=""1390""><rect height=""78.7"" width=""78.7""y=""354.15""x=""347.5"" fill=""red""/></svg>","83","stim_present","test","red","left","html-keyboard-response","92","95262","0.0-3.0-0.0-1.32","g03u","false"
"433","<svg height=""787"" width=""1390""><rect height=""78.7"" width=""78.7""y=""354.15""x=""655.65"" fill=""green""/></svg>","83","stim_present","test","green","middle","html-keyboard-response","94","96198","0.0-3.0-0.0-1.33","g03u","true"
"431","<svg height=""787"" width=""1390""><rect height=""78.7"" width=""78.7""y=""354.15""x=""1042.5"" fill=""green""/></svg>","83","stim_present","test","green","right","html-keyboard-response","96","97133","0.0-3.0-0.0-1.34","g03u","true"
"272","<svg height=""787"" width=""1390""><rect height=""78.7"" width=""78.7""y=""354.15""x=""347.5"" fill=""green""/></svg>","83","stim_present","test","green","left","html-keyboard-response","98","97907","0.0-3.0-0.0-1.35","g03u","true"
"507.00000000001455","<svg height=""787"" width=""1390""><rect height=""78.7"" width=""78.7""y=""354.15""x=""655.65"" fill=""red""/></svg>","76","stim_present","test","red","middle","html-keyboard-response","101","100492","0.0-3.0-0.1-1.36","g03u","true"
"354","<svg height=""787"" width=""1390""><rect height=""78.7"" width=""78.7""y=""354.15""x=""347.5"" fill=""green""/></svg>","83","stim_present","test","green","left","html-keyboard-response","103","101349","0.0-3.0-0.1-1.37","g03u","true"
"527.9999999999854","<svg height=""787"" width=""1390""><rect height=""78.7"" width=""78.7""y=""354.15""x=""347.5"" fill=""red""/></svg>","76","stim_present","test","red","left","html-keyboard-response","105","102380","0.0-3.0-0.1-1.38","g03u","true"
"335.00000000001455","<svg height=""787"" width=""1390""><rect height=""78.7"" width=""78.7""y=""354.15""x=""1042.5"" fill=""green""/></svg>","83","stim_present","test","green","right","html-keyboard-response","107","103218","0.0-3.0-0.1-1.39","g03u","true"
"554.9999999999854","<svg height=""787"" width=""1390""><rect height=""78.7"" width=""78.7""y=""354.15""x=""1042.5"" fill=""red""/></svg>","83","stim_present","test","red","right","html-keyboard-response","109","104276","0.0-3.0-0.1-1.40","g03u","false"
"320.00000000001455","<svg height=""787"" width=""1390""><rect height=""78.7"" width=""78.7""y=""354.15""x=""655.65"" fill=""green""/></svg>","83","stim_present","test","green","middle","html-keyboard-response","111","105099","0.0-3.0-0.1-1.41","g03u","true"
"427.99999999998545","<svg height=""787"" width=""1390""><rect height=""78.7"" width=""78.7""y=""354.15""x=""1042.5"" fill=""green""/></svg>","83","stim_present","test","green","right","html-keyboard-response","113","106030","0.0-3.0-0.1-1.42","g03u","true"
"374","<svg height=""787"" width=""1390""><rect height=""78.7"" width=""78.7""y=""354.15""x=""347.5"" fill=""green""/></svg>","83","stim_present","test","green","left","html-keyboard-response","115","106907","0.0-3.0-0.1-1.43","g03u","true"
"340","<svg height=""787"" width=""1390""><rect height=""78.7"" width=""78.7""y=""354.15""x=""655.65"" fill=""green""/></svg>","83","stim_present","test","green","middle","html-keyboard-response","117","107750","0.0-3.0-0.1-1.44","g03u","true"
"366","<svg height=""787"" width=""1390""><rect height=""78.7"" width=""78.7""y=""354.15""x=""1042.5"" fill=""red""/></svg>","76","stim_present","test","red","right","html-keyboard-response","119","108619","0.0-3.0-0.1-1.45","g03u","true"
"392","<svg height=""787"" width=""1390""><rect height=""78.7"" width=""78.7""y=""354.15""x=""655.65"" fill=""red""/></svg>","76","stim_present","test","red","middle","html-keyboard-response","121","109514","0.0-3.0-0.1-1.46","g03u","true"
"330.99999999998545","<svg height=""787"" width=""1390""><rect height=""78.7"" width=""78.7""y=""354.15""x=""347.5"" fill=""red""/></svg>","76","stim_present","test","red","left","html-keyboard-response","123","110347","0.0-3.0-0.1-1.47","g03u","true"
"398.00000000001455","<svg height=""787"" width=""1390""><rect height=""78.7"" width=""78.7""y=""354.15""x=""655.65"" fill=""green""/></svg>","83","stim_present","test","green","middle","html-keyboard-response","125","111249","0.0-3.0-0.1-1.48","g03u","true"
"313","<svg height=""787"" width=""1390""><rect height=""78.7"" width=""78.7""y=""354.15""x=""1042.5"" fill=""green""/></svg>","83","stim_present","test","green","right","html-keyboard-response","127","112066","0.0-3.0-0.1-1.49","g03u","true"
"276","<svg height=""787"" width=""1390""><rect height=""78.7"" width=""78.7""y=""354.15""x=""347.5"" fill=""green""/></svg>","83","stim_present","test","green","left","html-keyboard-response","129","112844","0.0-3.0-0.1-1.50","g03u","true"
"376.99999999998545","<svg height=""787"" width=""1390""><rect height=""78.7"" width=""78.7""y=""354.15""x=""347.5"" fill=""red""/></svg>","76","stim_present","test","red","left","html-keyboard-response","131","113723","0.0-3.0-0.1-1.51","g03u","true"
"239","<svg height=""787"" width=""1390""><rect height=""78.7"" width=""78.7""y=""354.15""x=""1042.5"" fill=""red""/></svg>","76","stim_present","test","red","right","html-keyboard-response","133","114464","0.0-3.0-0.1-1.52","g03u","true"
"305.99999999998545","<svg height=""787"" width=""1390""><rect height=""78.7"" width=""78.7""y=""354.15""x=""655.65"" fill=""red""/></svg>","76","stim_present","test","red","middle","html-keyboard-response","135","115274","0.0-3.0-0.1-1.53","g03u","true"
"452","<svg height=""787"" width=""1390""><rect height=""78.7"" width=""78.7""y=""354.15""x=""1042.5"" fill=""green""/></svg>","83","stim_present","test","green","right","html-keyboard-response","137","116228","0.0-3.0-0.1-1.54","g03u","true"
"272.99999999998545","<svg height=""787"" width=""1390""><rect height=""78.7"" width=""78.7""y=""354.15""x=""655.65"" fill=""red""/></svg>","83","stim_present","test","red","middle","html-keyboard-response","139","117004","0.0-3.0-0.1-1.55","g03u","false"
"367.00000000001455","<svg height=""787"" width=""1390""><rect height=""78.7"" width=""78.7""y=""354.15""x=""347.5"" fill=""green""/></svg>","83","stim_present","test","green","left","html-keyboard-response","141","117873","0.0-3.0-0.1-1.56","g03u","true"
"409.99999999998545","<svg height=""787"" width=""1390""><rect height=""78.7"" width=""78.7""y=""354.15""x=""655.65"" fill=""green""/></svg>","83","stim_present","test","green","middle","html-keyboard-response","143","118787","0.0-3.0-0.1-1.57","g03u","true"
"363","<svg height=""787"" width=""1390""><rect height=""78.7"" width=""78.7""y=""354.15""x=""1042.5"" fill=""red""/></svg>","76","stim_present","test","red","right","html-keyboard-response","145","119652","0.0-3.0-0.1-1.58","g03u","true"
"498","<svg height=""787"" width=""1390""><rect height=""78.7"" width=""78.7""y=""354.15""x=""347.5"" fill=""red""/></svg>","76","stim_present","test","red","left","html-keyboard-response","147","120653","0.0-3.0-0.1-1.59","g03u","true"
"375","<svg height=""787"" width=""1390""><rect height=""78.7"" width=""78.7""y=""354.15""x=""655.65"" fill=""red""/></svg>","76","stim_present","test","red","middle","html-keyboard-response","149","121531","0.0-3.0-0.1-1.60","g03u","true"
"339","<svg height=""787"" width=""1390""><rect height=""78.7"" width=""78.7""y=""354.15""x=""1042.5"" fill=""red""/></svg>","76","stim_present","test","red","right","html-keyboard-response","151","122372","0.0-3.0-0.1-1.61","g03u","true"
"437","<svg height=""787"" width=""1390""><rect height=""78.7"" width=""78.7""y=""354.15""x=""347.5"" fill=""green""/></svg>","83","stim_present","test","green","left","html-keyboard-response","153","123312","0.0-3.0-0.1-1.62","g03u","true"
"433","<svg height=""787"" width=""1390""><rect height=""78.7"" width=""78.7""y=""354.15""x=""1042.5"" fill=""green""/></svg>","83","stim_present","test","green","right","html-keyboard-response","155","124248","0.0-3.0-0.1-1.63","g03u","true"
"471.00000000001455","<svg height=""787"" width=""1390""><rect height=""78.7"" width=""78.7""y=""354.15""x=""655.65"" fill=""green""/></svg>","83","stim_present","test","green","middle","html-keyboard-response","157","125222","0.0-3.0-0.1-1.64","g03u","true"
"375.99999999998545","<svg height=""787"" width=""1390""><rect height=""78.7"" width=""78.7""y=""354.15""x=""347.5"" fill=""red""/></svg>","76","stim_present","test","red","left","html-keyboard-response","159","126100","0.0-3.0-0.1-1.65","g03u","true"
"911.9999999999854","<svg height=""787"" width=""1390""><rect height=""78.7"" width=""78.7""y=""354.15""x=""347.5"" fill=""green""/></svg>","83","stim_present","test","green","left","html-keyboard-response","161","127515","0.0-3.0-0.1-1.66","g03u","true"
"416","<svg height=""787"" width=""1390""><rect height=""78.7"" width=""78.7""y=""354.15""x=""655.65"" fill=""red""/></svg>","76","stim_present","test","red","middle","html-keyboard-response","163","128433","0.0-3.0-0.1-1.67","g03u","true"
"495","<svg height=""787"" width=""1390""><rect height=""78.7"" width=""78.7""y=""354.15""x=""1042.5"" fill=""red""/></svg>","76","stim_present","test","red","right","html-keyboard-response","165","129432","0.0-3.0-0.1-1.68","g03u","true"
"464.9999999999709","<svg height=""787"" width=""1390""><rect height=""78.7"" width=""78.7""y=""354.15""x=""347.5"" fill=""red""/></svg>","76","stim_present","test","red","left","html-keyboard-response","167","130400","0.0-3.0-0.1-1.69","g03u","true"
"430","<svg height=""787"" width=""1390""><rect height=""78.7"" width=""78.7""y=""354.15""x=""655.65"" fill=""green""/></svg>","83","stim_present","test","green","middle","html-keyboard-response","169","131332","0.0-3.0-0.1-1.70","g03u","true"
"461","<svg height=""787"" width=""1390""><rect height=""78.7"" width=""78.7""y=""354.15""x=""1042.5"" fill=""green""/></svg>","83","stim_present","test","green","right","html-keyboard-response","171","132297","0.0-3.0-0.1-1.71","g03u","true"
"565","<svg height=""787"" width=""1390""><rect height=""78.7"" width=""78.7""y=""354.15""x=""347.5"" fill=""red""/></svg>","76","stim_present","test","red","left","html-keyboard-response","174","134413","0.0-3.0-0.2-1.72","g03u","true"
"698","<svg height=""787"" width=""1390""><rect height=""78.7"" width=""78.7""y=""354.15""x=""347.5"" fill=""green""/></svg>","83","stim_present","test","green","left","html-keyboard-response","176","135614","0.0-3.0-0.2-1.73","g03u","true"
"1391","<svg height=""787"" width=""1390""><rect height=""78.7"" width=""78.7""y=""354.15""x=""655.65"" fill=""red""/></svg>","76","stim_present","test","red","middle","html-keyboard-response","178","137508","0.0-3.0-0.2-1.74","g03u","true"
"459","<svg height=""787"" width=""1390""><rect height=""78.7"" width=""78.7""y=""354.15""x=""655.65"" fill=""green""/></svg>","83","stim_present","test","green","middle","html-keyboard-response","180","138470","0.0-3.0-0.2-1.75","g03u","true"
"683","<svg height=""787"" width=""1390""><rect height=""78.7"" width=""78.7""y=""354.15""x=""1042.5"" fill=""red""/></svg>","76","stim_present","test","red","right","html-keyboard-response","182","139656","0.0-3.0-0.2-1.76","g03u","true"
"375","<svg height=""787"" width=""1390""><rect height=""78.7"" width=""78.7""y=""354.15""x=""1042.5"" fill=""green""/></svg>","83","stim_present","test","green","right","html-keyboard-response","184","140533","0.0-3.0-0.2-1.77","g03u","true"
"488.9999999999709","<svg height=""787"" width=""1390""><rect height=""78.7"" width=""78.7""y=""354.15""x=""655.65"" fill=""green""/></svg>","83","stim_present","test","green","middle","html-keyboard-response","186","141525","0.0-3.0-0.2-1.78","g03u","true"
"387","<svg height=""787"" width=""1390""><rect height=""78.7"" width=""78.7""y=""354.15""x=""1042.5"" fill=""green""/></svg>","83","stim_present","test","green","right","html-keyboard-response","188","142415","0.0-3.0-0.2-1.79","g03u","true"
"552","<svg height=""787"" width=""1390""><rect height=""78.7"" width=""78.7""y=""354.15""x=""1042.5"" fill=""red""/></svg>","76","stim_present","test","red","right","html-keyboard-response","190","143470","0.0-3.0-0.2-1.80","g03u","true"
"305","<svg height=""787"" width=""1390""><rect height=""78.7"" width=""78.7""y=""354.15""x=""655.65"" fill=""red""/></svg>","76","stim_present","test","red","middle","html-keyboard-response","192","144277","0.0-3.0-0.2-1.81","g03u","true"
"481","<svg height=""787"" width=""1390""><rect height=""78.7"" width=""78.7""y=""354.15""x=""347.5"" fill=""red""/></svg>","76","stim_present","test","red","left","html-keyboard-response","194","145261","0.0-3.0-0.2-1.82","g03u","true"
"493","<svg height=""787"" width=""1390""><rect height=""78.7"" width=""78.7""y=""354.15""x=""347.5"" fill=""green""/></svg>","83","stim_present","test","green","left","html-keyboard-response","196","146257","0.0-3.0-0.2-1.83","g03u","true"
"1228","<svg height=""787"" width=""1390""><rect height=""78.7"" width=""78.7""y=""354.15""x=""347.5"" fill=""red""/></svg>","76","stim_present","test","red","left","html-keyboard-response","198","147988","0.0-3.0-0.2-1.84","g03u","true"
"399","<svg height=""787"" width=""1390""><rect height=""78.7"" width=""78.7""y=""354.15""x=""347.5"" fill=""green""/></svg>","83","stim_present","test","green","left","html-keyboard-response","200","148890","0.0-3.0-0.2-1.85","g03u","true"
"512","<svg height=""787"" width=""1390""><rect height=""78.7"" width=""78.7""y=""354.15""x=""1042.5"" fill=""red""/></svg>","76","stim_present","test","red","right","html-keyboard-response","202","149905","0.0-3.0-0.2-1.86","g03u","true"
"289.0000000000291","<svg height=""787"" width=""1390""><rect height=""78.7"" width=""78.7""y=""354.15""x=""655.65"" fill=""red""/></svg>","76","stim_present","test","red","middle","html-keyboard-response","204","150697","0.0-3.0-0.2-1.87","g03u","true"
"532","<svg height=""787"" width=""1390""><rect height=""78.7"" width=""78.7""y=""354.15""x=""1042.5"" fill=""green""/></svg>","83","stim_present","test","green","right","html-keyboard-response","206","151732","0.0-3.0-0.2-1.88","g03u","true"
"280","<svg height=""787"" width=""1390""><rect height=""78.7"" width=""78.7""y=""354.15""x=""655.65"" fill=""green""/></svg>","83","stim_present","test","green","middle","html-keyboard-response","208","152515","0.0-3.0-0.2-1.89","g03u","true"
"356","<svg height=""787"" width=""1390""><rect height=""78.7"" width=""78.7""y=""354.15""x=""1042.5"" fill=""green""/></svg>","83","stim_present","test","green","right","html-keyboard-response","210","153374","0.0-3.0-0.2-1.90","g03u","true"
"349","<svg height=""787"" width=""1390""><rect height=""78.7"" width=""78.7""y=""354.15""x=""655.65"" fill=""red""/></svg>","76","stim_present","test","red","middle","html-keyboard-response","212","154227","0.0-3.0-0.2-1.91","g03u","true"
"311","<svg height=""787"" width=""1390""><rect height=""78.7"" width=""78.7""y=""354.15""x=""1042.5"" fill=""red""/></svg>","76","stim_present","test","red","right","html-keyboard-response","214","155040","0.0-3.0-0.2-1.92","g03u","true"
"375","<svg height=""787"" width=""1390""><rect height=""78.7"" width=""78.7""y=""354.15""x=""347.5"" fill=""red""/></svg>","83","stim_present","test","red","left","html-keyboard-response","216","155919","0.0-3.0-0.2-1.93","g03u","false"
"567","<svg height=""787"" width=""1390""><rect height=""78.7"" width=""78.7""y=""354.15""x=""655.65"" fill=""green""/></svg>","83","stim_present","test","green","middle","html-keyboard-response","218","156988","0.0-3.0-0.2-1.94","g03u","true"
"1773","<svg height=""787"" width=""1390""><rect height=""78.7"" width=""78.7""y=""354.15""x=""347.5"" fill=""green""/></svg>","83","stim_present","test","green","left","html-keyboard-response","220","159263","0.0-3.0-0.2-1.95","g03u","true"
"523","<svg height=""787"" width=""1390""><rect height=""78.7"" width=""78.7""y=""354.15""x=""1042.5"" fill=""green""/></svg>","83","stim_present","test","green","right","html-keyboard-response","222","160290","0.0-3.0-0.2-1.96","g03u","true"
"350.9999999999709","<svg height=""787"" width=""1390""><rect height=""78.7"" width=""78.7""y=""354.15""x=""347.5"" fill=""green""/></svg>","83","stim_present","test","green","left","html-keyboard-response","224","161144","0.0-3.0-0.2-1.97","g03u","true"
"348","<svg height=""787"" width=""1390""><rect height=""78.7"" width=""78.7""y=""354.15""x=""655.65"" fill=""green""/></svg>","83","stim_present","test","green","middle","html-keyboard-response","226","161994","0.0-3.0-0.2-1.98","g03u","true"
"461","<svg height=""787"" width=""1390""><rect height=""78.7"" width=""78.7""y=""354.15""x=""347.5"" fill=""red""/></svg>","76","stim_present","test","red","left","html-keyboard-response","228","162958","0.0-3.0-0.2-1.99","g03u","true"
"475.0000000000291","<svg height=""787"" width=""1390""><rect height=""78.7"" width=""78.7""y=""354.15""x=""655.65"" fill=""red""/></svg>","76","stim_present","test","red","middle","html-keyboard-response","230","163936","0.0-3.0-0.2-1.100","g03u","true"
"469","<svg height=""787"" width=""1390""><rect height=""78.7"" width=""78.7""y=""354.15""x=""1042.5"" fill=""red""/></svg>","76","stim_present","test","red","right","html-keyboard-response","232","164906","0.0-3.0-0.2-1.101","g03u","true"
"460","<svg height=""787"" width=""1390""><rect height=""78.7"" width=""78.7""y=""354.15""x=""1042.5"" fill=""green""/></svg>","83","stim_present","test","green","right","html-keyboard-response","234","165870","0.0-3.0-0.2-1.102","g03u","true"
"418","<svg height=""787"" width=""1390""><rect height=""78.7"" width=""78.7""y=""354.15""x=""347.5"" fill=""red""/></svg>","76","stim_present","test","red","left","html-keyboard-response","236","166791","0.0-3.0-0.2-1.103","g03u","true"
"830","<svg height=""787"" width=""1390""><rect height=""78.7"" width=""78.7""y=""354.15""x=""347.5"" fill=""green""/></svg>","83","stim_present","test","green","left","html-keyboard-response","238","168124","0.0-3.0-0.2-1.104","g03u","true"
"765","<svg height=""787"" width=""1390""><rect height=""78.7"" width=""78.7""y=""354.15""x=""655.65"" fill=""green""/></svg>","83","stim_present","test","green","middle","html-keyboard-response","240","169392","0.0-3.0-0.2-1.105","g03u","true"
"402","<svg height=""787"" width=""1390""><rect height=""78.7"" width=""78.7""y=""354.15""x=""655.65"" fill=""red""/></svg>","76","stim_present","test","red","middle","html-keyboard-response","242","170297","0.0-3.0-0.2-1.106","g03u","true"
"449","<svg height=""787"" width=""1390""><rect height=""78.7"" width=""78.7""y=""354.15""x=""1042.5"" fill=""red""/></svg>","76","stim_present","test","red","right","html-keyboard-response","244","171249","0.0-3.0-0.2-1.107","g03u","true"
"537.9999999999709","<svg height=""787"" width=""1390""><rect height=""78.7"" width=""78.7""y=""354.15""x=""655.65"" fill=""green""/></svg>","83","stim_present","test","green","middle","html-keyboard-response","247","173456","0.0-3.0-0.3-1.108","g03u","true"
"359","<svg height=""787"" width=""1390""><rect height=""78.7"" width=""78.7""y=""354.15""x=""1042.5"" fill=""red""/></svg>","76","stim_present","test","red","right","html-keyboard-response","249","174318","0.0-3.0-0.3-1.109","g03u","true"
"306","<svg height=""787"" width=""1390""><rect height=""78.7"" width=""78.7""y=""354.15""x=""655.65"" fill=""red""/></svg>","76","stim_present","test","red","middle","html-keyboard-response","251","175127","0.0-3.0-0.3-1.110","g03u","true"
"426","<svg height=""787"" width=""1390""><rect height=""78.7"" width=""78.7""y=""354.15""x=""347.5"" fill=""green""/></svg>","83","stim_present","test","green","left","html-keyboard-response","253","176056","0.0-3.0-0.3-1.111","g03u","true"
"382","<svg height=""787"" width=""1390""><rect height=""78.7"" width=""78.7""y=""354.15""x=""1042.5"" fill=""green""/></svg>","83","stim_present","test","green","right","html-keyboard-response","255","176940","0.0-3.0-0.3-1.112","g03u","true"
"354","<svg height=""787"" width=""1390""><rect height=""78.7"" width=""78.7""y=""354.15""x=""347.5"" fill=""red""/></svg>","76","stim_present","test","red","left","html-keyboard-response","257","177797","0.0-3.0-0.3-1.113","g03u","true"
"436","<svg height=""787"" width=""1390""><rect height=""78.7"" width=""78.7""y=""354.15""x=""347.5"" fill=""red""/></svg>","76","stim_present","test","red","left","html-keyboard-response","259","178736","0.0-3.0-0.3-1.114","g03u","true"
"491","<svg height=""787"" width=""1390""><rect height=""78.7"" width=""78.7""y=""354.15""x=""655.65"" fill=""green""/></svg>","83","stim_present","test","green","middle","html-keyboard-response","261","179729","0.0-3.0-0.3-1.115","g03u","true"
"430","<svg height=""787"" width=""1390""><rect height=""78.7"" width=""78.7""y=""354.15""x=""1042.5"" fill=""green""/></svg>","83","stim_present","test","green","right","html-keyboard-response","263","180661","0.0-3.0-0.3-1.116","g03u","true"
"434.0000000000291","<svg height=""787"" width=""1390""><rect height=""78.7"" width=""78.7""y=""354.15""x=""1042.5"" fill=""red""/></svg>","76","stim_present","test","red","right","html-keyboard-response","265","181597","0.0-3.0-0.3-1.117","g03u","true"
"550","<svg height=""787"" width=""1390""><rect height=""78.7"" width=""78.7""y=""354.15""x=""347.5"" fill=""green""/></svg>","83","stim_present","test","green","left","html-keyboard-response","267","182651","0.0-3.0-0.3-1.118","g03u","true"
"459","<svg height=""787"" width=""1390""><rect height=""78.7"" width=""78.7""y=""354.15""x=""655.65"" fill=""red""/></svg>","76","stim_present","test","red","middle","html-keyboard-response","269","183612","0.0-3.0-0.3-1.119","g03u","true"
"392","<svg height=""787"" width=""1390""><rect height=""78.7"" width=""78.7""y=""354.15""x=""347.5"" fill=""red""/></svg>","83","stim_present","test","red","left","html-keyboard-response","271","184506","0.0-3.0-0.3-1.120","g03u","false"
"376","<svg height=""787"" width=""1390""><rect height=""78.7"" width=""78.7""y=""354.15""x=""347.5"" fill=""green""/></svg>","83","stim_present","test","green","left","html-keyboard-response","273","185385","0.0-3.0-0.3-1.121","g03u","true"
"554.0000000000291","<svg height=""787"" width=""1390""><rect height=""78.7"" width=""78.7""y=""354.15""x=""655.65"" fill=""red""/></svg>","76","stim_present","test","red","middle","html-keyboard-response","275","186443","0.0-3.0-0.3-1.122","g03u","true"
"382","<svg height=""787"" width=""1390""><rect height=""78.7"" width=""78.7""y=""354.15""x=""1042.5"" fill=""red""/></svg>","76","stim_present","test","red","right","html-keyboard-response","277","187327","0.0-3.0-0.3-1.123","g03u","true"
"542","<svg height=""787"" width=""1390""><rect height=""78.7"" width=""78.7""y=""354.15""x=""655.65"" fill=""green""/></svg>","83","stim_present","test","green","middle","html-keyboard-response","279","188373","0.0-3.0-0.3-1.124","g03u","true"
"926","<svg height=""787"" width=""1390""><rect height=""78.7"" width=""78.7""y=""354.15""x=""1042.5"" fill=""green""/></svg>","83","stim_present","test","green","right","html-keyboard-response","281","189801","0.0-3.0-0.3-1.125","g03u","true"
"363","<svg height=""787"" width=""1390""><rect height=""78.7"" width=""78.7""y=""354.15""x=""347.5"" fill=""green""/></svg>","83","stim_present","test","green","left","html-keyboard-response","283","190667","0.0-3.0-0.3-1.126","g03u","true"
"292","<svg height=""787"" width=""1390""><rect height=""78.7"" width=""78.7""y=""354.15""x=""655.65"" fill=""green""/></svg>","83","stim_present","test","green","middle","html-keyboard-response","285","191463","0.0-3.0-0.3-1.127","g03u","true"
"369","<svg height=""787"" width=""1390""><rect height=""78.7"" width=""78.7""y=""354.15""x=""1042.5"" fill=""red""/></svg>","76","stim_present","test","red","right","html-keyboard-response","287","192334","0.0-3.0-0.3-1.128","g03u","true"
"445","<svg height=""787"" width=""1390""><rect height=""78.7"" width=""78.7""y=""354.15""x=""347.5"" fill=""red""/></svg>","76","stim_present","test","red","left","html-keyboard-response","289","193281","0.0-3.0-0.3-1.129","g03u","true"
"343","<svg height=""787"" width=""1390""><rect height=""78.7"" width=""78.7""y=""354.15""x=""1042.5"" fill=""green""/></svg>","83","stim_present","test","green","right","html-keyboard-response","291","194126","0.0-3.0-0.3-1.130","g03u","true"
"484","<svg height=""787"" width=""1390""><rect height=""78.7"" width=""78.7""y=""354.15""x=""655.65"" fill=""red""/></svg>","76","stim_present","test","red","middle","html-keyboard-response","293","195112","0.0-3.0-0.3-1.131","g03u","true"
"817.9999999999709","<svg height=""787"" width=""1390""><rect height=""78.7"" width=""78.7""y=""354.15""x=""1042.5"" fill=""red""/></svg>","76","stim_present","test","red","right","html-keyboard-response","295","196435","0.0-3.0-0.3-1.132","g03u","true"
"466.9999999999709","<svg height=""787"" width=""1390""><rect height=""78.7"" width=""78.7""y=""354.15""x=""655.65"" fill=""green""/></svg>","83","stim_present","test","green","middle","html-keyboard-response","297","197403","0.0-3.0-0.3-1.133","g03u","true"
"389","<svg height=""787"" width=""1390""><rect height=""78.7"" width=""78.7""y=""354.15""x=""347.5"" fill=""green""/></svg>","83","stim_present","test","green","left","html-keyboard-response","299","198294","0.0-3.0-0.3-1.134","g03u","true"
"471","<svg height=""787"" width=""1390""><rect height=""78.7"" width=""78.7""y=""354.15""x=""347.5"" fill=""red""/></svg>","76","stim_present","test","red","left","html-keyboard-response","301","199268","0.0-3.0-0.3-1.135","g03u","true"
"372","<svg height=""787"" width=""1390""><rect height=""78.7"" width=""78.7""y=""354.15""x=""655.65"" fill=""red""/></svg>","83","stim_present","test","red","middle","html-keyboard-response","303","200142","0.0-3.0-0.3-1.136","g03u","false"
"307","<svg height=""787"" width=""1390""><rect height=""78.7"" width=""78.7""y=""354.15""x=""1042.5"" fill=""green""/></svg>","83","stim_present","test","green","right","html-keyboard-response","305","200953","0.0-3.0-0.3-1.137","g03u","true"
"292","<svg height=""787"" width=""1390""><rect height=""78.7"" width=""78.7""y=""354.15""x=""655.65"" fill=""green""/></svg>","83","stim_present","test","green","middle","html-keyboard-response","307","201747","0.0-3.0-0.3-1.138","g03u","true"
"433","<svg height=""787"" width=""1390""><rect height=""78.7"" width=""78.7""y=""354.15""x=""1042.5"" fill=""green""/></svg>","83","stim_present","test","green","right","html-keyboard-response","309","202683","0.0-3.0-0.3-1.139","g03u","true"
"460","<svg height=""787"" width=""1390""><rect height=""78.7"" width=""78.7""y=""354.15""x=""1042.5"" fill=""red""/></svg>","76","stim_present","test","red","right","html-keyboard-response","311","203646","0.0-3.0-0.3-1.140","g03u","true"
"293","<svg height=""787"" width=""1390""><rect height=""78.7"" width=""78.7""y=""354.15""x=""655.65"" fill=""red""/></svg>","76","stim_present","test","red","middle","html-keyboard-response","313","204442","0.0-3.0-0.3-1.141","g03u","true"
"386","<svg height=""787"" width=""1390""><rect height=""78.7"" width=""78.7""y=""354.15""x=""347.5"" fill=""red""/></svg>","76","stim_present","test","red","left","html-keyboard-response","315","205330","0.0-3.0-0.3-1.142","g03u","true"
"527.0000000000291","<svg height=""787"" width=""1390""><rect height=""78.7"" width=""78.7""y=""354.15""x=""347.5"" fill=""green""/></svg>","83","stim_present","test","green","left","html-keyboard-response","317","206360","0.0-3.0-0.3-1.143","g03u","true"
