"rt","stimulus","key_press","type","part","color","position","trial_type","trial_index","time_elapsed","internal_node_id","subject","accuracy"
"580.3949999972247","<svg height=""704"" width=""1486""><rect height=""70.4"" width=""70.4""y=""316.8""x=""1114.5"" fill=""red""/></svg>","76","stim_present","training","red","right","html-keyboard-response","3","32584","0.0-2.0-0.0-1.0","kopr","true"
"396.81999999447726","<svg height=""704"" width=""1486""><rect height=""70.4"" width=""70.4""y=""316.8""x=""1114.5"" fill=""green""/></svg>","83","stim_present","training","green","right","html-keyboard-response","5","33486","0.0-2.0-0.0-1.1","kopr","true"
"600.0099999946542","<svg height=""704"" width=""1486""><rect height=""70.4"" width=""70.4""y=""316.8""x=""707.8"" fill=""green""/></svg>","83","stim_present","training","green","middle","html-keyboard-response","7","34595","0.0-2.0-0.0-1.2","kopr","true"
"377.9450000147335","<svg height=""704"" width=""1486""><rect height=""70.4"" width=""70.4""y=""316.8""x=""707.8"" fill=""red""/></svg>","76","stim_present","training","red","middle","html-keyboard-response","9","35482","0.0-2.0-0.0-1.3","kopr","true"
"515.064999985043","<svg height=""704"" width=""1486""><rect height=""70.4"" width=""70.4""y=""316.8""x=""371.5"" fill=""red""/></svg>","76","stim_present","training","red","left","html-keyboard-response","11","36505","0.0-2.0-0.0-1.4","kopr","true"
"442.7750000031665","<svg height=""704"" width=""1486""><rect height=""70.4"" width=""70.4""y=""316.8""x=""371.5"" fill=""green""/></svg>","83","stim_present","training","green","left","html-keyboard-response","13","37457","0.0-2.0-0.0-1.5","kopr","true"
"517.6949999877252","<svg height=""704"" width=""1486""><rect height=""70.4"" width=""70.4""y=""316.8""x=""707.8"" fill=""red""/></svg>","76","stim_present","training","red","middle","html-keyboard-response","15","38493","0.0-2.0-0.0-1.6","kopr","true"
"547.3599999968428","<svg height=""704"" width=""1486""><rect height=""70.4"" width=""70.4""y=""316.8""x=""371.5"" fill=""red""/></svg>","76","stim_present","training","red","left","html-keyboard-response","17","39550","0.0-2.0-0.0-1.7","kopr","true"
"307.65500001143664","<svg height=""704"" width=""1486""><rect height=""70.4"" width=""70.4""y=""316.8""x=""1114.5"" fill=""red""/></svg>","76","stim_present","training","red","right","html-keyboard-response","19","40373","0.0-2.0-0.0-1.8","kopr","true"
"444.1050000023097","<svg height=""704"" width=""1486""><rect height=""70.4"" width=""70.4""y=""316.8""x=""1114.5"" fill=""green""/></svg>","83","stim_present","training","green","right","html-keyboard-response","21","41320","0.0-2.0-0.0-1.9","kopr","true"
"401.7199999943841","<svg height=""704"" width=""1486""><rect height=""70.4"" width=""70.4""y=""316.8""x=""707.8"" fill=""green""/></svg>","83","stim_present","training","green","middle","html-keyboard-response","23","42237","0.0-2.0-0.0-1.10","kopr","true"
"388.2400000002235","<svg height=""704"" width=""1486""><rect height=""70.4"" width=""70.4""y=""316.8""x=""371.5"" fill=""green""/></svg>","83","stim_present","training","green","left","html-keyboard-response","25","43134","0.0-2.0-0.0-1.11","kopr","true"
"357.1150000207126","<svg height=""704"" width=""1486""><rect height=""70.4"" width=""70.4""y=""316.8""x=""371.5"" fill=""green""/></svg>","83","stim_present","test","green","left","html-keyboard-response","28","62147","0.0-3.0-0.0-1.0","kopr","true"
"387.3500000045169","<svg height=""704"" width=""1486""><rect height=""70.4"" width=""70.4""y=""316.8""x=""707.8"" fill=""red""/></svg>","76","stim_present","test","red","middle","html-keyboard-response","30","63046","0.0-3.0-0.0-1.1","kopr","true"
"317.6849999872502","<svg height=""704"" width=""1486""><rect height=""70.4"" width=""70.4""y=""316.8""x=""371.5"" fill=""red""/></svg>","76","stim_present","test","red","left","html-keyboard-response","32","63869","0.0-3.0-0.0-1.2","kopr","true"
"418.1749999988824","<svg height=""704"" width=""1486""><rect height=""70.4"" width=""70.4""y=""316.8""x=""707.8"" fill=""green""/></svg>","83","stim_present","test","green","middle","html-keyboard-response","34","64808","0.0-3.0-0.0-1.3","kopr","true"
"379.2749999847729","<svg height=""704"" width=""1486""><rect height=""70.4"" width=""70.4""y=""316.8""x=""1114.5"" fill=""green""/></svg>","83","stim_present","test","green","right","html-keyboard-response","36","65698","0.0-3.0-0.0-1.4","kopr","true"
"445.10000001173466","<svg height=""704"" width=""1486""><rect height=""70.4"" width=""70.4""y=""316.8""x=""1114.5"" fill=""red""/></svg>","76","stim_present","test","red","right","html-keyboard-response","38","66649","0.0-3.0-0.0-1.5","kopr","true"
"424.57499998272397","<svg height=""704"" width=""1486""><rect height=""70.4"" width=""70.4""y=""316.8""x=""707.8"" fill=""green""/></svg>","83","stim_present","test","green","middle","html-keyboard-response","40","67579","0.0-3.0-0.0-1.6","kopr","true"
"351.9350000133272","<svg height=""704"" width=""1486""><rect height=""70.4"" width=""70.4""y=""316.8""x=""371.5"" fill=""red""/></svg>","76","stim_present","test","red","left","html-keyboard-response","42","68446","0.0-3.0-0.0-1.7","kopr","true"
"441.97499999427237","<svg height=""704"" width=""1486""><rect height=""70.4"" width=""70.4""y=""316.8""x=""1114.5"" fill=""green""/></svg>","83","stim_present","test","green","right","html-keyboard-response","44","69405","0.0-3.0-0.0-1.8","kopr","true"
"444.0749999776017","<svg height=""704"" width=""1486""><rect height=""70.4"" width=""70.4""y=""316.8""x=""371.5"" fill=""green""/></svg>","83","stim_present","test","green","left","html-keyboard-response","46","70355","0.0-3.0-0.0-1.9","kopr","true"
"347.9899999802001","<svg height=""704"" width=""1486""><rect height=""70.4"" width=""70.4""y=""316.8""x=""707.8"" fill=""red""/></svg>","76","stim_present","test","red","middle","html-keyboard-response","48","71211","0.0-3.0-0.0-1.10","kopr","true"
"370.630000019446","<svg height=""704"" width=""1486""><rect height=""70.4"" width=""70.4""y=""316.8""x=""1114.5"" fill=""red""/></svg>","76","stim_present","test","red","right","html-keyboard-response","50","72100","0.0-3.0-0.0-1.11","kopr","true"
"353.5750000155531","<svg height=""704"" width=""1486""><rect height=""70.4"" width=""70.4""y=""316.8""x=""707.8"" fill=""red""/></svg>","76","stim_present","test","red","middle","html-keyboard-response","52","72971","0.0-3.0-0.0-1.12","kopr","true"
"249.21999999787658","<svg height=""704"" width=""1486""><rect height=""70.4"" width=""70.4""y=""316.8""x=""371.5"" fill=""red""/></svg>","83","stim_present","test","red","left","html-keyboard-response","54","73734","0.0-3.0-0.0-1.13","kopr","false"
"1179.2549999954645","<svg height=""704"" width=""1486""><rect height=""70.4"" width=""70.4""y=""316.8""x=""1114.5"" fill=""green""/></svg>","83","stim_present","test","green","right","html-keyboard-response","56","75425","0.0-3.0-0.0-1.14","kopr","true"
"545.4549999849405","<svg height=""704"" width=""1486""><rect height=""70.4"" width=""70.4""y=""316.8""x=""707.8"" fill=""green""/></svg>","83","stim_present","test","green","middle","html-keyboard-response","58","76478","0.0-3.0-0.0-1.15","kopr","true"
"351.60500000347383","<svg height=""704"" width=""1486""><rect height=""70.4"" width=""70.4""y=""316.8""x=""371.5"" fill=""green""/></svg>","83","stim_present","test","green","left","html-keyboard-response","60","77340","0.0-3.0-0.0-1.16","kopr","true"
"669.7449999919627","<svg height=""704"" width=""1486""><rect height=""70.4"" width=""70.4""y=""316.8""x=""1114.5"" fill=""red""/></svg>","76","stim_present","test","red","right","html-keyboard-response","62","78527","0.0-3.0-0.0-1.17","kopr","true"
"499.3100000137929","<svg height=""704"" width=""1486""><rect height=""70.4"" width=""70.4""y=""316.8""x=""1114.5"" fill=""green""/></svg>","83","stim_present","test","green","right","html-keyboard-response","64","79531","0.0-3.0-0.0-1.18","kopr","true"
"418.6749999935273","<svg height=""704"" width=""1486""><rect height=""70.4"" width=""70.4""y=""316.8""x=""371.5"" fill=""green""/></svg>","83","stim_present","test","green","left","html-keyboard-response","66","80465","0.0-3.0-0.0-1.19","kopr","true"
"366.47000000812113","<svg height=""704"" width=""1486""><rect height=""70.4"" width=""70.4""y=""316.8""x=""707.8"" fill=""red""/></svg>","76","stim_present","test","red","middle","html-keyboard-response","68","81346","0.0-3.0-0.0-1.20","kopr","true"
"261.0350000031758","<svg height=""704"" width=""1486""><rect height=""70.4"" width=""70.4""y=""316.8""x=""1114.5"" fill=""red""/></svg>","76","stim_present","test","red","right","html-keyboard-response","70","82122","0.0-3.0-0.0-1.21","kopr","true"
"360.7999999949243","<svg height=""704"" width=""1486""><rect height=""70.4"" width=""70.4""y=""316.8""x=""371.5"" fill=""red""/></svg>","76","stim_present","test","red","left","html-keyboard-response","72","82994","0.0-3.0-0.0-1.22","kopr","true"
"386.80000000749715","<svg height=""704"" width=""1486""><rect height=""70.4"" width=""70.4""y=""316.8""x=""707.8"" fill=""green""/></svg>","83","stim_present","test","green","middle","html-keyboard-response","74","83890","0.0-3.0-0.0-1.23","kopr","true"
"342.7450000017416","<svg height=""704"" width=""1486""><rect height=""70.4"" width=""70.4""y=""316.8""x=""1114.5"" fill=""green""/></svg>","83","stim_present","test","green","right","html-keyboard-response","76","84739","0.0-3.0-0.0-1.24","kopr","true"
"370.28999999165535","<svg height=""704"" width=""1486""><rect height=""70.4"" width=""70.4""y=""316.8""x=""1114.5"" fill=""red""/></svg>","76","stim_present","test","red","right","html-keyboard-response","78","85614","0.0-3.0-0.0-1.25","kopr","true"
"383.5850000032224","<svg height=""704"" width=""1486""><rect height=""70.4"" width=""70.4""y=""316.8""x=""371.5"" fill=""red""/></svg>","76","stim_present","test","red","left","html-keyboard-response","80","86511","0.0-3.0-0.0-1.26","kopr","true"
"397.6799999945797","<svg height=""704"" width=""1486""><rect height=""70.4"" width=""70.4""y=""316.8""x=""371.5"" fill=""green""/></svg>","83","stim_present","test","green","left","html-keyboard-response","82","87423","0.0-3.0-0.0-1.27","kopr","true"
"454.5549999747891","<svg height=""704"" width=""1486""><rect height=""70.4"" width=""70.4""y=""316.8""x=""707.8"" fill=""green""/></svg>","83","stim_present","test","green","middle","html-keyboard-response","84","88384","0.0-3.0-0.0-1.28","kopr","true"
"371.36499999905936","<svg height=""704"" width=""1486""><rect height=""70.4"" width=""70.4""y=""316.8""x=""707.8"" fill=""red""/></svg>","76","stim_present","test","red","middle","html-keyboard-response","86","89259","0.0-3.0-0.0-1.29","kopr","true"
"360.49000002094544","<svg height=""704"" width=""1486""><rect height=""70.4"" width=""70.4""y=""316.8""x=""371.5"" fill=""red""/></svg>","76","stim_present","test","red","left","html-keyboard-response","88","90128","0.0-3.0-0.0-1.30","kopr","true"
"395.17499998328276","<svg height=""704"" width=""1486""><rect height=""70.4"" width=""70.4""y=""316.8""x=""1114.5"" fill=""green""/></svg>","83","stim_present","test","green","right","html-keyboard-response","90","91034","0.0-3.0-0.0-1.31","kopr","true"
"412.8199999977369","<svg height=""704"" width=""1486""><rect height=""70.4"" width=""70.4""y=""316.8""x=""1114.5"" fill=""red""/></svg>","76","stim_present","test","red","right","html-keyboard-response","92","91963","0.0-3.0-0.0-1.32","kopr","true"
"429.14000002201647","<svg height=""704"" width=""1486""><rect height=""70.4"" width=""70.4""y=""316.8""x=""707.8"" fill=""green""/></svg>","83","stim_present","test","green","middle","html-keyboard-response","94","92906","0.0-3.0-0.0-1.33","kopr","true"
"372.9049999965355","<svg height=""704"" width=""1486""><rect height=""70.4"" width=""70.4""y=""316.8""x=""707.8"" fill=""red""/></svg>","76","stim_present","test","red","middle","html-keyboard-response","96","93783","0.0-3.0-0.0-1.34","kopr","true"
"313.8350000081118","<svg height=""704"" width=""1486""><rect height=""70.4"" width=""70.4""y=""316.8""x=""371.5"" fill=""green""/></svg>","83","stim_present","test","green","left","html-keyboard-response","98","94602","0.0-3.0-0.0-1.35","kopr","true"
"406.20999998645857","<svg height=""704"" width=""1486""><rect height=""70.4"" width=""70.4""y=""316.8""x=""1114.5"" fill=""red""/></svg>","76","stim_present","test","red","right","html-keyboard-response","101","97956","0.0-3.0-0.1-1.36","kopr","true"
"314.0349999885075","<svg height=""704"" width=""1486""><rect height=""70.4"" width=""70.4""y=""316.8""x=""371.5"" fill=""green""/></svg>","83","stim_present","test","green","left","html-keyboard-response","103","98789","0.0-3.0-0.1-1.37","kopr","true"
"368.44999997993","<svg height=""704"" width=""1486""><rect height=""70.4"" width=""70.4""y=""316.8""x=""371.5"" fill=""red""/></svg>","76","stim_present","test","red","left","html-keyboard-response","105","99665","0.0-3.0-0.1-1.38","kopr","true"
"361.36499998974614","<svg height=""704"" width=""1486""><rect height=""70.4"" width=""70.4""y=""316.8""x=""1114.5"" fill=""green""/></svg>","83","stim_present","test","green","right","html-keyboard-response","107","100533","0.0-3.0-0.1-1.39","kopr","true"
"418.32999998587184","<svg height=""704"" width=""1486""><rect height=""70.4"" width=""70.4""y=""316.8""x=""707.8"" fill=""red""/></svg>","76","stim_present","test","red","middle","html-keyboard-response","109","101465","0.0-3.0-0.1-1.40","kopr","true"
"405.09499999461696","<svg height=""704"" width=""1486""><rect height=""70.4"" width=""70.4""y=""316.8""x=""707.8"" fill=""green""/></svg>","83","stim_present","test","green","middle","html-keyboard-response","111","102382","0.0-3.0-0.1-1.41","kopr","true"
"452.06000001053326","<svg height=""704"" width=""1486""><rect height=""70.4"" width=""70.4""y=""316.8""x=""371.5"" fill=""red""/></svg>","76","stim_present","test","red","left","html-keyboard-response","113","103351","0.0-3.0-0.1-1.42","kopr","true"
"471.4399999938905","<svg height=""704"" width=""1486""><rect height=""70.4"" width=""70.4""y=""316.8""x=""371.5"" fill=""green""/></svg>","83","stim_present","test","green","left","html-keyboard-response","115","104338","0.0-3.0-0.1-1.43","kopr","true"
"451.28000000840984","<svg height=""704"" width=""1486""><rect height=""70.4"" width=""70.4""y=""316.8""x=""707.8"" fill=""green""/></svg>","83","stim_present","test","green","middle","html-keyboard-response","117","105300","0.0-3.0-0.1-1.44","kopr","true"
"371.37500001699664","<svg height=""704"" width=""1486""><rect height=""70.4"" width=""70.4""y=""316.8""x=""1114.5"" fill=""red""/></svg>","76","stim_present","test","red","right","html-keyboard-response","119","106184","0.0-3.0-0.1-1.45","kopr","true"
"323.8899999996647","<svg height=""704"" width=""1486""><rect height=""70.4"" width=""70.4""y=""316.8""x=""707.8"" fill=""red""/></svg>","76","stim_present","test","red","middle","html-keyboard-response","121","107025","0.0-3.0-0.1-1.46","kopr","true"
"374.06500001088716","<svg height=""704"" width=""1486""><rect height=""70.4"" width=""70.4""y=""316.8""x=""1114.5"" fill=""green""/></svg>","83","stim_present","test","green","right","html-keyboard-response","123","107903","0.0-3.0-0.1-1.47","kopr","true"
"388.13000000664033","<svg height=""704"" width=""1486""><rect height=""70.4"" width=""70.4""y=""316.8""x=""1114.5"" fill=""green""/></svg>","83","stim_present","test","green","right","html-keyboard-response","125","108803","0.0-3.0-0.1-1.48","kopr","true"
"423.29499998595566","<svg height=""704"" width=""1486""><rect height=""70.4"" width=""70.4""y=""316.8""x=""1114.5"" fill=""red""/></svg>","83","stim_present","test","red","right","html-keyboard-response","127","109743","0.0-3.0-0.1-1.49","kopr","false"
"1894.3649999855552","<svg height=""704"" width=""1486""><rect height=""70.4"" width=""70.4""y=""316.8""x=""371.5"" fill=""red""/></svg>","76","stim_present","test","red","left","html-keyboard-response","129","112143","0.0-3.0-0.1-1.50","kopr","true"
"491.51500000152737","<svg height=""704"" width=""1486""><rect height=""70.4"" width=""70.4""y=""316.8""x=""371.5"" fill=""green""/></svg>","83","stim_present","test","green","left","html-keyboard-response","131","113139","0.0-3.0-0.1-1.51","kopr","true"
"675.2899999846704","<svg height=""704"" width=""1486""><rect height=""70.4"" width=""70.4""y=""316.8""x=""707.8"" fill=""green""/></svg>","83","stim_present","test","green","middle","html-keyboard-response","133","114321","0.0-3.0-0.1-1.52","kopr","true"
"397.0749999862164","<svg height=""704"" width=""1486""><rect height=""70.4"" width=""70.4""y=""316.8""x=""707.8"" fill=""red""/></svg>","76","stim_present","test","red","middle","html-keyboard-response","135","115222","0.0-3.0-0.1-1.53","kopr","true"
"335.59999999124557","<svg height=""704"" width=""1486""><rect height=""70.4"" width=""70.4""y=""316.8""x=""707.8"" fill=""green""/></svg>","83","stim_present","test","green","middle","html-keyboard-response","137","116070","0.0-3.0-0.1-1.54","kopr","true"
"569.1799999913201","<svg height=""704"" width=""1486""><rect height=""70.4"" width=""70.4""y=""316.8""x=""1114.5"" fill=""green""/></svg>","76","stim_present","test","green","right","html-keyboard-response","139","117154","0.0-3.0-0.1-1.55","kopr","false"
"1841.5699999895878","<svg height=""704"" width=""1486""><rect height=""70.4"" width=""70.4""y=""316.8""x=""1114.5"" fill=""red""/></svg>","76","stim_present","test","red","right","html-keyboard-response","141","119512","0.0-3.0-0.1-1.56","kopr","true"
"1111.54000001261","<svg height=""704"" width=""1486""><rect height=""70.4"" width=""70.4""y=""316.8""x=""371.5"" fill=""red""/></svg>","76","stim_present","test","red","left","html-keyboard-response","143","121133","0.0-3.0-0.1-1.57","kopr","true"
"393.3250000118278","<svg height=""704"" width=""1486""><rect height=""70.4"" width=""70.4""y=""316.8""x=""707.8"" fill=""red""/></svg>","76","stim_present","test","red","middle","html-keyboard-response","145","122040","0.0-3.0-0.1-1.58","kopr","true"
"433.3299999998417","<svg height=""704"" width=""1486""><rect height=""70.4"" width=""70.4""y=""316.8""x=""371.5"" fill=""green""/></svg>","83","stim_present","test","green","left","html-keyboard-response","147","122979","0.0-3.0-0.1-1.59","kopr","true"
"784.3350000039209","<svg height=""704"" width=""1486""><rect height=""70.4"" width=""70.4""y=""316.8""x=""371.5"" fill=""green""/></svg>","83","stim_present","test","green","left","html-keyboard-response","149","124275","0.0-3.0-0.1-1.60","kopr","true"
"860.404999984894","<svg height=""704"" width=""1486""><rect height=""70.4"" width=""70.4""y=""316.8""x=""1114.5"" fill=""green""/></svg>","83","stim_present","test","green","right","html-keyboard-response","151","125647","0.0-3.0-0.1-1.61","kopr","true"
"410.94000000157394","<svg height=""704"" width=""1486""><rect height=""70.4"" width=""70.4""y=""316.8""x=""707.8"" fill=""green""/></svg>","83","stim_present","test","green","middle","html-keyboard-response","153","126571","0.0-3.0-0.1-1.62","kopr","true"
"529.2150000168476","<svg height=""704"" width=""1486""><rect height=""70.4"" width=""70.4""y=""316.8""x=""707.8"" fill=""red""/></svg>","76","stim_present","test","red","middle","html-keyboard-response","155","127611","0.0-3.0-0.1-1.63","kopr","true"
"498.26999998185784","<svg height=""704"" width=""1486""><rect height=""70.4"" width=""70.4""y=""316.8""x=""1114.5"" fill=""red""/></svg>","76","stim_present","test","red","right","html-keyboard-response","157","128617","0.0-3.0-0.1-1.64","kopr","true"
"409.51500000664964","<svg height=""704"" width=""1486""><rect height=""70.4"" width=""70.4""y=""316.8""x=""371.5"" fill=""red""/></svg>","76","stim_present","test","red","left","html-keyboard-response","159","129530","0.0-3.0-0.1-1.65","kopr","true"
"414.57500000251457","<svg height=""704"" width=""1486""><rect height=""70.4"" width=""70.4""y=""316.8""x=""1114.5"" fill=""green""/></svg>","83","stim_present","test","green","right","html-keyboard-response","161","130457","0.0-3.0-0.1-1.66","kopr","true"
"723.6449999909382","<svg height=""704"" width=""1486""><rect height=""70.4"" width=""70.4""y=""316.8""x=""371.5"" fill=""red""/></svg>","76","stim_present","test","red","left","html-keyboard-response","163","131685","0.0-3.0-0.1-1.67","kopr","true"
"500.80000000889413","<svg height=""704"" width=""1486""><rect height=""70.4"" width=""70.4""y=""316.8""x=""707.8"" fill=""red""/></svg>","76","stim_present","test","red","middle","html-keyboard-response","165","132695","0.0-3.0-0.1-1.68","kopr","true"
"876.2700000079349","<svg height=""704"" width=""1486""><rect height=""70.4"" width=""70.4""y=""316.8""x=""707.8"" fill=""green""/></svg>","83","stim_present","test","green","middle","html-keyboard-response","167","134081","0.0-3.0-0.1-1.69","kopr","true"
"362.9150000051595","<svg height=""704"" width=""1486""><rect height=""70.4"" width=""70.4""y=""316.8""x=""371.5"" fill=""green""/></svg>","83","stim_present","test","green","left","html-keyboard-response","169","134950","0.0-3.0-0.1-1.70","kopr","true"
"453.16500001354143","<svg height=""704"" width=""1486""><rect height=""70.4"" width=""70.4""y=""316.8""x=""1114.5"" fill=""red""/></svg>","76","stim_present","test","red","right","html-keyboard-response","171","135912","0.0-3.0-0.1-1.71","kopr","true"
"1898.9899999869522","<svg height=""704"" width=""1486""><rect height=""70.4"" width=""70.4""y=""316.8""x=""371.5"" fill=""red""/></svg>","76","stim_present","test","red","left","html-keyboard-response","174","144078","0.0-3.0-0.2-1.72","kopr","true"
"810.6950000219513","<svg height=""704"" width=""1486""><rect height=""70.4"" width=""70.4""y=""316.8""x=""707.8"" fill=""red""/></svg>","76","stim_present","test","red","middle","html-keyboard-response","176","145403","0.0-3.0-0.2-1.73","kopr","true"
"329.78000000002794","<svg height=""704"" width=""1486""><rect height=""70.4"" width=""70.4""y=""316.8""x=""1114.5"" fill=""red""/></svg>","76","stim_present","test","red","right","html-keyboard-response","178","146237","0.0-3.0-0.2-1.74","kopr","true"
"858.0699999874923","<svg height=""704"" width=""1486""><rect height=""70.4"" width=""70.4""y=""316.8""x=""1114.5"" fill=""green""/></svg>","83","stim_present","test","green","right","html-keyboard-response","180","147600","0.0-3.0-0.2-1.75","kopr","true"
"813.6149999918416","<svg height=""704"" width=""1486""><rect height=""70.4"" width=""70.4""y=""316.8""x=""371.5"" fill=""green""/></svg>","83","stim_present","test","green","left","html-keyboard-response","182","148918","0.0-3.0-0.2-1.76","kopr","true"
"440.43499999679625","<svg height=""704"" width=""1486""><rect height=""70.4"" width=""70.4""y=""316.8""x=""707.8"" fill=""green""/></svg>","83","stim_present","test","green","middle","html-keyboard-response","184","149878","0.0-3.0-0.2-1.77","kopr","true"
"416.86999998637475","<svg height=""704"" width=""1486""><rect height=""70.4"" width=""70.4""y=""316.8""x=""371.5"" fill=""green""/></svg>","83","stim_present","test","green","left","html-keyboard-response","186","150813","0.0-3.0-0.2-1.78","kopr","true"
"500.2999999851454","<svg height=""704"" width=""1486""><rect height=""70.4"" width=""70.4""y=""316.8""x=""371.5"" fill=""red""/></svg>","76","stim_present","test","red","left","html-keyboard-response","188","151816","0.0-3.0-0.2-1.79","kopr","true"
"541.0200000042096","<svg height=""704"" width=""1486""><rect height=""70.4"" width=""70.4""y=""316.8""x=""1114.5"" fill=""red""/></svg>","76","stim_present","test","red","right","html-keyboard-response","190","152870","0.0-3.0-0.2-1.80","kopr","true"
"389.1050000092946","<svg height=""704"" width=""1486""><rect height=""70.4"" width=""70.4""y=""316.8""x=""707.8"" fill=""green""/></svg>","83","stim_present","test","green","middle","html-keyboard-response","192","153767","0.0-3.0-0.2-1.81","kopr","true"
"501.6749999776948","<svg height=""704"" width=""1486""><rect height=""70.4"" width=""70.4""y=""316.8""x=""707.8"" fill=""red""/></svg>","76","stim_present","test","red","middle","html-keyboard-response","194","154771","0.0-3.0-0.2-1.82","kopr","true"
"486.94000000250526","<svg height=""704"" width=""1486""><rect height=""70.4"" width=""70.4""y=""316.8""x=""1114.5"" fill=""green""/></svg>","83","stim_present","test","green","right","html-keyboard-response","196","155765","0.0-3.0-0.2-1.83","kopr","true"
"451.0700000100769","<svg height=""704"" width=""1486""><rect height=""70.4"" width=""70.4""y=""316.8""x=""707.8"" fill=""red""/></svg>","76","stim_present","test","red","middle","html-keyboard-response","198","156731","0.0-3.0-0.2-1.84","kopr","true"
"940.3500000189524","<svg height=""704"" width=""1486""><rect height=""70.4"" width=""70.4""y=""316.8""x=""707.8"" fill=""green""/></svg>","83","stim_present","test","green","middle","html-keyboard-response","200","158186","0.0-3.0-0.2-1.85","kopr","true"
"442.65000001178123","<svg height=""704"" width=""1486""><rect height=""70.4"" width=""70.4""y=""316.8""x=""371.5"" fill=""red""/></svg>","76","stim_present","test","red","left","html-keyboard-response","202","159132","0.0-3.0-0.2-1.86","kopr","true"
"878.0200000037439","<svg height=""704"" width=""1486""><rect height=""70.4"" width=""70.4""y=""316.8""x=""371.5"" fill=""green""/></svg>","83","stim_present","test","green","left","html-keyboard-response","204","160512","0.0-3.0-0.2-1.87","kopr","true"
"333.3799999963958","<svg height=""704"" width=""1486""><rect height=""70.4"" width=""70.4""y=""316.8""x=""1114.5"" fill=""red""/></svg>","76","stim_present","test","red","right","html-keyboard-response","206","161363","0.0-3.0-0.2-1.88","kopr","true"
"556.6500000131782","<svg height=""704"" width=""1486""><rect height=""70.4"" width=""70.4""y=""316.8""x=""1114.5"" fill=""green""/></svg>","83","stim_present","test","green","right","html-keyboard-response","208","162432","0.0-3.0-0.2-1.89","kopr","true"
"287.92500001145527","<svg height=""704"" width=""1486""><rect height=""70.4"" width=""70.4""y=""316.8""x=""371.5"" fill=""red""/></svg>","76","stim_present","test","red","left","html-keyboard-response","210","163227","0.0-3.0-0.2-1.90","kopr","true"
"666.3700000208337","<svg height=""704"" width=""1486""><rect height=""70.4"" width=""70.4""y=""316.8""x=""371.5"" fill=""green""/></svg>","83","stim_present","test","green","left","html-keyboard-response","212","164396","0.0-3.0-0.2-1.91","kopr","true"
"331.9449999835342","<svg height=""704"" width=""1486""><rect height=""70.4"" width=""70.4""y=""316.8""x=""1114.5"" fill=""red""/></svg>","76","stim_present","test","red","right","html-keyboard-response","214","165244","0.0-3.0-0.2-1.92","kopr","true"
"896.1599999747705","<svg height=""704"" width=""1486""><rect height=""70.4"" width=""70.4""y=""316.8""x=""707.8"" fill=""red""/></svg>","76","stim_present","test","red","middle","html-keyboard-response","216","166653","0.0-3.0-0.2-1.93","kopr","true"
"653.3049999852665","<svg height=""704"" width=""1486""><rect height=""70.4"" width=""70.4""y=""316.8""x=""707.8"" fill=""green""/></svg>","83","stim_present","test","green","middle","html-keyboard-response","218","167818","0.0-3.0-0.2-1.94","kopr","true"
"627.7950000076089","<svg height=""704"" width=""1486""><rect height=""70.4"" width=""70.4""y=""316.8""x=""1114.5"" fill=""green""/></svg>","83","stim_present","test","green","right","html-keyboard-response","220","168949","0.0-3.0-0.2-1.95","kopr","true"
"409.6349999890663","<svg height=""704"" width=""1486""><rect height=""70.4"" width=""70.4""y=""316.8""x=""707.8"" fill=""red""/></svg>","76","stim_present","test","red","middle","html-keyboard-response","222","169868","0.0-3.0-0.2-1.96","kopr","true"
"562.8300000098534","<svg height=""704"" width=""1486""><rect height=""70.4"" width=""70.4""y=""316.8""x=""371.5"" fill=""red""/></svg>","76","stim_present","test","red","left","html-keyboard-response","224","170943","0.0-3.0-0.2-1.97","kopr","true"
"619.4649999961257","<svg height=""704"" width=""1486""><rect height=""70.4"" width=""70.4""y=""316.8""x=""707.8"" fill=""green""/></svg>","83","stim_present","test","green","middle","html-keyboard-response","226","172079","0.0-3.0-0.2-1.98","kopr","true"
"852.7649999887217","<svg height=""704"" width=""1486""><rect height=""70.4"" width=""70.4""y=""316.8""x=""371.5"" fill=""green""/></svg>","83","stim_present","test","green","left","html-keyboard-response","228","173436","0.0-3.0-0.2-1.99","kopr","true"
"388.11500000883825","<svg height=""704"" width=""1486""><rect height=""70.4"" width=""70.4""y=""316.8""x=""1114.5"" fill=""red""/></svg>","76","stim_present","test","red","right","html-keyboard-response","230","174330","0.0-3.0-0.2-1.100","kopr","true"
"672.3750000237487","<svg height=""704"" width=""1486""><rect height=""70.4"" width=""70.4""y=""316.8""x=""1114.5"" fill=""green""/></svg>","83","stim_present","test","green","right","html-keyboard-response","232","175514","0.0-3.0-0.2-1.101","kopr","true"
"344.0550000232179","<svg height=""704"" width=""1486""><rect height=""70.4"" width=""70.4""y=""316.8""x=""371.5"" fill=""red""/></svg>","76","stim_present","test","red","left","html-keyboard-response","234","176360","0.0-3.0-0.2-1.102","kopr","true"
"413.26000000117347","<svg height=""704"" width=""1486""><rect height=""70.4"" width=""70.4""y=""316.8""x=""1114.5"" fill=""green""/></svg>","83","stim_present","test","green","right","html-keyboard-response","236","177279","0.0-3.0-0.2-1.103","kopr","true"
"555.9200000134297","<svg height=""704"" width=""1486""><rect height=""70.4"" width=""70.4""y=""316.8""x=""707.8"" fill=""green""/></svg>","83","stim_present","test","green","middle","html-keyboard-response","238","178346","0.0-3.0-0.2-1.104","kopr","true"
"563.3799999777693","<svg height=""704"" width=""1486""><rect height=""70.4"" width=""70.4""y=""316.8""x=""371.5"" fill=""green""/></svg>","83","stim_present","test","green","left","html-keyboard-response","240","179427","0.0-3.0-0.2-1.105","kopr","true"
"578.6650000081863","<svg height=""704"" width=""1486""><rect height=""70.4"" width=""70.4""y=""316.8""x=""707.8"" fill=""red""/></svg>","76","stim_present","test","red","middle","html-keyboard-response","242","180511","0.0-3.0-0.2-1.106","kopr","true"
"382.01000000117347","<svg height=""704"" width=""1486""><rect height=""70.4"" width=""70.4""y=""316.8""x=""1114.5"" fill=""red""/></svg>","76","stim_present","test","red","right","html-keyboard-response","244","181410","0.0-3.0-0.2-1.107","kopr","true"
"482.3949999990873","<svg height=""704"" width=""1486""><rect height=""70.4"" width=""70.4""y=""316.8""x=""707.8"" fill=""red""/></svg>","76","stim_present","test","red","middle","html-keyboard-response","247","184090","0.0-3.0-0.3-1.108","kopr","true"
"542.505000019446","<svg height=""704"" width=""1486""><rect height=""70.4"" width=""70.4""y=""316.8""x=""1114.5"" fill=""green""/></svg>","83","stim_present","test","green","right","html-keyboard-response","249","185148","0.0-3.0-0.3-1.109","kopr","true"
"434.17500000214204","<svg height=""704"" width=""1486""><rect height=""70.4"" width=""70.4""y=""316.8""x=""371.5"" fill=""green""/></svg>","83","stim_present","test","green","left","html-keyboard-response","251","186086","0.0-3.0-0.3-1.110","kopr","true"
"449.3650000076741","<svg height=""704"" width=""1486""><rect height=""70.4"" width=""70.4""y=""316.8""x=""707.8"" fill=""green""/></svg>","83","stim_present","test","green","middle","html-keyboard-response","253","187054","0.0-3.0-0.3-1.111","kopr","true"
"443.32000002032146","<svg height=""704"" width=""1486""><rect height=""70.4"" width=""70.4""y=""316.8""x=""1114.5"" fill=""red""/></svg>","76","stim_present","test","red","right","html-keyboard-response","255","188003","0.0-3.0-0.3-1.112","kopr","true"
"427.06499999621883","<svg height=""704"" width=""1486""><rect height=""70.4"" width=""70.4""y=""316.8""x=""371.5"" fill=""red""/></svg>","76","stim_present","test","red","left","html-keyboard-response","257","188940","0.0-3.0-0.3-1.113","kopr","true"
"417.72499997750856","<svg height=""704"" width=""1486""><rect height=""70.4"" width=""70.4""y=""316.8""x=""1114.5"" fill=""red""/></svg>","76","stim_present","test","red","right","html-keyboard-response","259","189868","0.0-3.0-0.3-1.114","kopr","true"
"414.64999999152496","<svg height=""704"" width=""1486""><rect height=""70.4"" width=""70.4""y=""316.8""x=""371.5"" fill=""green""/></svg>","83","stim_present","test","green","left","html-keyboard-response","261","190800","0.0-3.0-0.3-1.115","kopr","true"
"458.15000002039596","<svg height=""704"" width=""1486""><rect height=""70.4"" width=""70.4""y=""316.8""x=""371.5"" fill=""red""/></svg>","76","stim_present","test","red","left","html-keyboard-response","263","191766","0.0-3.0-0.3-1.116","kopr","true"
"420.30999998678453","<svg height=""704"" width=""1486""><rect height=""70.4"" width=""70.4""y=""316.8""x=""707.8"" fill=""green""/></svg>","83","stim_present","test","green","middle","html-keyboard-response","265","192696","0.0-3.0-0.3-1.117","kopr","true"
"377.7049999916926","<svg height=""704"" width=""1486""><rect height=""70.4"" width=""70.4""y=""316.8""x=""707.8"" fill=""red""/></svg>","76","stim_present","test","red","middle","html-keyboard-response","267","193589","0.0-3.0-0.3-1.118","kopr","true"
"477.0149999822024","<svg height=""704"" width=""1486""><rect height=""70.4"" width=""70.4""y=""316.8""x=""1114.5"" fill=""green""/></svg>","83","stim_present","test","green","right","html-keyboard-response","269","194583","0.0-3.0-0.3-1.119","kopr","true"
"340.70500000962056","<svg height=""704"" width=""1486""><rect height=""70.4"" width=""70.4""y=""316.8""x=""707.8"" fill=""red""/></svg>","76","stim_present","test","red","middle","html-keyboard-response","271","195430","0.0-3.0-0.3-1.120","kopr","true"
"318.59999999869615","<svg height=""704"" width=""1486""><rect height=""70.4"" width=""70.4""y=""316.8""x=""371.5"" fill=""red""/></svg>","76","stim_present","test","red","left","html-keyboard-response","273","196262","0.0-3.0-0.3-1.121","kopr","true"
"313.2949999999255","<svg height=""704"" width=""1486""><rect height=""70.4"" width=""70.4""y=""316.8""x=""1114.5"" fill=""green""/></svg>","83","stim_present","test","green","right","html-keyboard-response","275","197079","0.0-3.0-0.3-1.122","kopr","true"
"394.35499999672174","<svg height=""704"" width=""1486""><rect height=""70.4"" width=""70.4""y=""316.8""x=""1114.5"" fill=""red""/></svg>","76","stim_present","test","red","right","html-keyboard-response","277","197989","0.0-3.0-0.3-1.123","kopr","true"
"536.0499999951571","<svg height=""704"" width=""1486""><rect height=""70.4"" width=""70.4""y=""316.8""x=""707.8"" fill=""green""/></svg>","83","stim_present","test","green","middle","html-keyboard-response","279","199036","0.0-3.0-0.3-1.124","kopr","true"
"454.4999999925494","<svg height=""704"" width=""1486""><rect height=""70.4"" width=""70.4""y=""316.8""x=""371.5"" fill=""green""/></svg>","83","stim_present","test","green","left","html-keyboard-response","281","200005","0.0-3.0-0.3-1.125","kopr","true"
"456.29500001086853","<svg height=""704"" width=""1486""><rect height=""70.4"" width=""70.4""y=""316.8""x=""1114.5"" fill=""green""/></svg>","83","stim_present","test","green","right","html-keyboard-response","283","200979","0.0-3.0-0.3-1.126","kopr","true"
"467.85499999532476","<svg height=""704"" width=""1486""><rect height=""70.4"" width=""70.4""y=""316.8""x=""1114.5"" fill=""red""/></svg>","76","stim_present","test","red","right","html-keyboard-response","285","201959","0.0-3.0-0.3-1.127","kopr","true"
"502.87999998545274","<svg height=""704"" width=""1486""><rect height=""70.4"" width=""70.4""y=""316.8""x=""707.8"" fill=""green""/></svg>","83","stim_present","test","green","middle","html-keyboard-response","287","202979","0.0-3.0-0.3-1.128","kopr","true"
"439.24999999580905","<svg height=""704"" width=""1486""><rect height=""70.4"" width=""70.4""y=""316.8""x=""371.5"" fill=""green""/></svg>","83","stim_present","test","green","left","html-keyboard-response","289","203929","0.0-3.0-0.3-1.129","kopr","true"
"356.62500001490116","<svg height=""704"" width=""1486""><rect height=""70.4"" width=""70.4""y=""316.8""x=""371.5"" fill=""red""/></svg>","76","stim_present","test","red","left","html-keyboard-response","291","204798","0.0-3.0-0.3-1.130","kopr","true"
"311.3049999810755","<svg height=""704"" width=""1486""><rect height=""70.4"" width=""70.4""y=""316.8""x=""707.8"" fill=""red""/></svg>","76","stim_present","test","red","middle","html-keyboard-response","293","205623","0.0-3.0-0.3-1.131","kopr","true"
"371.80500000249594","<svg height=""704"" width=""1486""><rect height=""70.4"" width=""70.4""y=""316.8""x=""1114.5"" fill=""green""/></svg>","83","stim_present","test","green","right","html-keyboard-response","295","206507","0.0-3.0-0.3-1.132","kopr","true"
"386.81999998516403","<svg height=""704"" width=""1486""><rect height=""70.4"" width=""70.4""y=""316.8""x=""1114.5"" fill=""red""/></svg>","76","stim_present","test","red","right","html-keyboard-response","297","207397","0.0-3.0-0.3-1.133","kopr","true"
"355.9250000107568","<svg height=""704"" width=""1486""><rect height=""70.4"" width=""70.4""y=""316.8""x=""707.8"" fill=""green""/></svg>","83","stim_present","test","green","middle","html-keyboard-response","299","208257","0.0-3.0-0.3-1.134","kopr","true"
"370.25000000721775","<svg height=""704"" width=""1486""><rect height=""70.4"" width=""70.4""y=""316.8""x=""371.5"" fill=""green""/></svg>","83","stim_present","test","green","left","html-keyboard-response","301","209141","0.0-3.0-0.3-1.135","kopr","true"
"352.34500002115965","<svg height=""704"" width=""1486""><rect height=""70.4"" width=""70.4""y=""316.8""x=""707.8"" fill=""red""/></svg>","76","stim_present","test","red","middle","html-keyboard-response","303","209997","0.0-3.0-0.3-1.136","kopr","true"
"399.46499999496154","<svg height=""704"" width=""1486""><rect height=""70.4"" width=""70.4""y=""316.8""x=""371.5"" fill=""red""/></svg>","76","stim_present","test","red","left","html-keyboard-response","305","210901","0.0-3.0-0.3-1.137","kopr","true"
"756.6400000068825","<svg height=""704"" width=""1486""><rect height=""70.4"" width=""70.4""y=""316.8""x=""1114.5"" fill=""red""/></svg>","76","stim_present","test","red","right","html-keyboard-response","307","212162","0.0-3.0-0.3-1.138","kopr","true"
"489.0249999880325","<svg height=""704"" width=""1486""><rect height=""70.4"" width=""70.4""y=""316.8""x=""1114.5"" fill=""green""/></svg>","83","stim_present","test","green","right","html-keyboard-response","309","213167","0.0-3.0-0.3-1.139","kopr","true"
"394.510000012815","<svg height=""704"" width=""1486""><rect height=""70.4"" width=""70.4""y=""316.8""x=""371.5"" fill=""green""/></svg>","83","stim_present","test","green","left","html-keyboard-response","311","214074","0.0-3.0-0.3-1.140","kopr","true"
"482.95999999390915","<svg height=""704"" width=""1486""><rect height=""70.4"" width=""70.4""y=""316.8""x=""707.8"" fill=""red""/></svg>","76","stim_present","test","red","middle","html-keyboard-response","313","215066","0.0-3.0-0.3-1.141","kopr","true"
"420.429999998305","<svg height=""704"" width=""1486""><rect height=""70.4"" width=""70.4""y=""316.8""x=""707.8"" fill=""green""/></svg>","83","stim_present","test","green","middle","html-keyboard-response","315","216003","0.0-3.0-0.3-1.142","kopr","true"
"431.7399999999907","<svg height=""704"" width=""1486""><rect height=""70.4"" width=""70.4""y=""316.8""x=""371.5"" fill=""red""/></svg>","76","stim_present","test","red","left","html-keyboard-response","317","216950","0.0-3.0-0.3-1.143","kopr","true"
