"rt,""stimulus"",""key_press"",""type"",""part"",""color"",""position"",""trial_type"",""trial_index"",""time_elapsed"",""internal_node_id"",""subject"",""accuracy"""
"373.5950000118464,""<svg height=""""704"""" width=""""1486""""><rect height=""""70.4"""" width=""""70.4""""y=""""316.8""""x=""""1114.5"""" fill=""""red""""/></svg>"",""76"",""stim_present"",""training"",""red"",""right"",""html-keyboard-response"",""3"",""47942"",""0.0-2.0-0.0-1.0"",""afge"",""true"""
"284.1599999810569,""<svg height=""""704"""" width=""""1486""""><rect height=""""70.4"""" width=""""70.4""""y=""""316.8""""x=""""371.5"""" fill=""""green""""/></svg>"",""83"",""stim_present"",""training"",""green"",""left"",""html-keyboard-response"",""5"",""48741"",""0.0-2.0-0.0-1.1"",""afge"",""true"""
"219.4000000017695,""<svg height=""""704"""" width=""""1486""""><rect height=""""70.4"""" width=""""70.4""""y=""""316.8""""x=""""1114.5"""" fill=""""green""""/></svg>"",""76"",""stim_present"",""training"",""green"",""right"",""html-keyboard-response"",""7"",""49466"",""0.0-2.0-0.0-1.2"",""afge"",""false"""
"880.1300000050105,""<svg height=""""704"""" width=""""1486""""><rect height=""""70.4"""" width=""""70.4""""y=""""316.8""""x=""""707.8"""" fill=""""red""""/></svg>"",""76"",""stim_present"",""training"",""red"",""middle"",""html-keyboard-response"",""9"",""50862"",""0.0-2.0-0.0-1.3"",""afge"",""true"""
"2699.6800000197254,""<svg height=""""704"""" width=""""1486""""><rect height=""""70.4"""" width=""""70.4""""y=""""316.8""""x=""""707.8"""" fill=""""green""""/></svg>"",""83"",""stim_present"",""training"",""green"",""middle"",""html-keyboard-response"",""11"",""54071"",""0.0-2.0-0.0-1.4"",""afge"",""true"""
"1868.7100000097416,""<svg height=""""704"""" width=""""1486""""><rect height=""""70.4"""" width=""""70.4""""y=""""316.8""""x=""""371.5"""" fill=""""red""""/></svg>"",""76"",""stim_present"",""training"",""red"",""left"",""html-keyboard-response"",""13"",""56454"",""0.0-2.0-0.0-1.5"",""afge"",""true"""
"564.6800000104122,""<svg height=""""704"""" width=""""1486""""><rect height=""""70.4"""" width=""""70.4""""y=""""316.8""""x=""""1114.5"""" fill=""""red""""/></svg>"",""76"",""stim_present"",""training"",""red"",""right"",""html-keyboard-response"",""15"",""57523"",""0.0-2.0-0.0-1.6"",""afge"",""true"""
"547.2200000076555,""<svg height=""""704"""" width=""""1486""""><rect height=""""70.4"""" width=""""70.4""""y=""""316.8""""x=""""1114.5"""" fill=""""green""""/></svg>"",""83"",""stim_present"",""training"",""green"",""right"",""html-keyboard-response"",""17"",""58574"",""0.0-2.0-0.0-1.7"",""afge"",""true"""
"638.8099999749102,""<svg height=""""704"""" width=""""1486""""><rect height=""""70.4"""" width=""""70.4""""y=""""316.8""""x=""""371.5"""" fill=""""green""""/></svg>"",""83"",""stim_present"",""training"",""green"",""left"",""html-keyboard-response"",""19"",""59719"",""0.0-2.0-0.0-1.8"",""afge"",""true"""
"596.2849999777973,""<svg height=""""704"""" width=""""1486""""><rect height=""""70.4"""" width=""""70.4""""y=""""316.8""""x=""""371.5"""" fill=""""red""""/></svg>"",""76"",""stim_present"",""training"",""red"",""left"",""html-keyboard-response"",""21"",""60833"",""0.0-2.0-0.0-1.9"",""afge"",""true"""
"560.7599999639206,""<svg height=""""704"""" width=""""1486""""><rect height=""""70.4"""" width=""""70.4""""y=""""316.8""""x=""""707.8"""" fill=""""green""""/></svg>"",""83"",""stim_present"",""training"",""green"",""middle"",""html-keyboard-response"",""23"",""61906"",""0.0-2.0-0.0-1.10"",""afge"",""true"""
"527.9150000424124,""<svg height=""""704"""" width=""""1486""""><rect height=""""70.4"""" width=""""70.4""""y=""""316.8""""x=""""707.8"""" fill=""""red""""/></svg>"",""83"",""stim_present"",""training"",""red"",""middle"",""html-keyboard-response"",""25"",""62937"",""0.0-2.0-0.0-1.11"",""afge"",""false"""
"413.8349999557249,""<svg height=""""704"""" width=""""1486""""><rect height=""""70.4"""" width=""""70.4""""y=""""316.8""""x=""""371.5"""" fill=""""green""""/></svg>"",""83"",""stim_present"",""test"",""green"",""left"",""html-keyboard-response"",""28"",""71758"",""0.0-3.0-0.0-1.0"",""afge"",""true"""
"540.7849999610335,""<svg height=""""704"""" width=""""1486""""><rect height=""""70.4"""" width=""""70.4""""y=""""316.8""""x=""""371.5"""" fill=""""red""""/></svg>"",""76"",""stim_present"",""test"",""red"",""left"",""html-keyboard-response"",""30"",""72809"",""0.0-3.0-0.0-1.1"",""afge"",""true"""
"508.3000000449829,""<svg height=""""704"""" width=""""1486""""><rect height=""""70.4"""" width=""""70.4""""y=""""316.8""""x=""""707.8"""" fill=""""green""""/></svg>"",""83"",""stim_present"",""test"",""green"",""middle"",""html-keyboard-response"",""32"",""73822"",""0.0-3.0-0.0-1.2"",""afge"",""true"""
"383.1299999728799,""<svg height=""""704"""" width=""""1486""""><rect height=""""70.4"""" width=""""70.4""""y=""""316.8""""x=""""1114.5"""" fill=""""red""""/></svg>"",""76"",""stim_present"",""test"",""red"",""right"",""html-keyboard-response"",""34"",""74708"",""0.0-3.0-0.0-1.3"",""afge"",""true"""
"447.5800000363961,""<svg height=""""704"""" width=""""1486""""><rect height=""""70.4"""" width=""""70.4""""y=""""316.8""""x=""""707.8"""" fill=""""red""""/></svg>"",""76"",""stim_present"",""test"",""red"",""middle"",""html-keyboard-response"",""36"",""75667"",""0.0-3.0-0.0-1.4"",""afge"",""true"""
"426.05499998899177,""<svg height=""""704"""" width=""""1486""""><rect height=""""70.4"""" width=""""70.4""""y=""""316.8""""x=""""1114.5"""" fill=""""green""""/></svg>"",""83"",""stim_present"",""test"",""green"",""right"",""html-keyboard-response"",""38"",""76597"",""0.0-3.0-0.0-1.5"",""afge"",""true"""
"712.6200000056997,""<svg height=""""704"""" width=""""1486""""><rect height=""""70.4"""" width=""""70.4""""y=""""316.8""""x=""""371.5"""" fill=""""red""""/></svg>"",""76"",""stim_present"",""test"",""red"",""left"",""html-keyboard-response"",""40"",""77825"",""0.0-3.0-0.0-1.6"",""afge"",""true"""
"499.5449999696575,""<svg height=""""704"""" width=""""1486""""><rect height=""""70.4"""" width=""""70.4""""y=""""316.8""""x=""""371.5"""" fill=""""green""""/></svg>"",""83"",""stim_present"",""test"",""green"",""left"",""html-keyboard-response"",""42"",""78836"",""0.0-3.0-0.0-1.7"",""afge"",""true"""
"380.925000004936,""<svg height=""""704"""" width=""""1486""""><rect height=""""70.4"""" width=""""70.4""""y=""""316.8""""x=""""707.8"""" fill=""""green""""/></svg>"",""76"",""stim_present"",""test"",""green"",""middle"",""html-keyboard-response"",""44"",""79721"",""0.0-3.0-0.0-1.8"",""afge"",""false"""
"542.1250000363216,""<svg height=""""704"""" width=""""1486""""><rect height=""""70.4"""" width=""""70.4""""y=""""316.8""""x=""""1114.5"""" fill=""""red""""/></svg>"",""76"",""stim_present"",""test"",""red"",""right"",""html-keyboard-response"",""46"",""80766"",""0.0-3.0-0.0-1.9"",""afge"",""true"""
"388.80499999504536,""<svg height=""""704"""" width=""""1486""""><rect height=""""70.4"""" width=""""70.4""""y=""""316.8""""x=""""707.8"""" fill=""""red""""/></svg>"",""76"",""stim_present"",""test"",""red"",""middle"",""html-keyboard-response"",""48"",""81664"",""0.0-3.0-0.0-1.10"",""afge"",""true"""
"571.0900000412948,""<svg height=""""704"""" width=""""1486""""><rect height=""""70.4"""" width=""""70.4""""y=""""316.8""""x=""""1114.5"""" fill=""""green""""/></svg>"",""83"",""stim_present"",""test"",""green"",""right"",""html-keyboard-response"",""50"",""82738"",""0.0-3.0-0.0-1.11"",""afge"",""true"""
"464.2349999630824,""<svg height=""""704"""" width=""""1486""""><rect height=""""70.4"""" width=""""70.4""""y=""""316.8""""x=""""371.5"""" fill=""""green""""/></svg>"",""83"",""stim_present"",""test"",""green"",""left"",""html-keyboard-response"",""52"",""83714"",""0.0-3.0-0.0-1.12"",""afge"",""true"""
"283.5600000107661,""<svg height=""""704"""" width=""""1486""""><rect height=""""70.4"""" width=""""70.4""""y=""""316.8""""x=""""707.8"""" fill=""""red""""/></svg>"",""76"",""stim_present"",""test"",""red"",""middle"",""html-keyboard-response"",""54"",""84501"",""0.0-3.0-0.0-1.13"",""afge"",""true"""
"469.64000002481043,""<svg height=""""704"""" width=""""1486""""><rect height=""""70.4"""" width=""""70.4""""y=""""316.8""""x=""""1114.5"""" fill=""""red""""/></svg>"",""76"",""stim_present"",""test"",""red"",""right"",""html-keyboard-response"",""56"",""85481"",""0.0-3.0-0.0-1.14"",""afge"",""true"""
"493.1449999567121,""<svg height=""""704"""" width=""""1486""""><rect height=""""70.4"""" width=""""70.4""""y=""""316.8""""x=""""371.5"""" fill=""""red""""/></svg>"",""83"",""stim_present"",""test"",""red"",""left"",""html-keyboard-response"",""58"",""86477"",""0.0-3.0-0.0-1.15"",""afge"",""false"""
"1357.9199999803677,""<svg height=""""704"""" width=""""1486""""><rect height=""""70.4"""" width=""""70.4""""y=""""316.8""""x=""""1114.5"""" fill=""""green""""/></svg>"",""83"",""stim_present"",""test"",""green"",""right"",""html-keyboard-response"",""60"",""88346"",""0.0-3.0-0.0-1.16"",""afge"",""true"""
"614.9149999837391,""<svg height=""""704"""" width=""""1486""""><rect height=""""70.4"""" width=""""70.4""""y=""""316.8""""x=""""707.8"""" fill=""""green""""/></svg>"",""83"",""stim_present"",""test"",""green"",""middle"",""html-keyboard-response"",""62"",""89471"",""0.0-3.0-0.0-1.17"",""afge"",""true"""
"499.31499996455386,""<svg height=""""704"""" width=""""1486""""><rect height=""""70.4"""" width=""""70.4""""y=""""316.8""""x=""""707.8"""" fill=""""green""""/></svg>"",""83"",""stim_present"",""test"",""green"",""middle"",""html-keyboard-response"",""64"",""90474"",""0.0-3.0-0.0-1.18"",""afge"",""true"""
"362.77499998686835,""<svg height=""""704"""" width=""""1486""""><rect height=""""70.4"""" width=""""70.4""""y=""""316.8""""x=""""1114.5"""" fill=""""red""""/></svg>"",""76"",""stim_present"",""test"",""red"",""right"",""html-keyboard-response"",""66"",""91349"",""0.0-3.0-0.0-1.19"",""afge"",""true"""
"382.7249999740161,""<svg height=""""704"""" width=""""1486""""><rect height=""""70.4"""" width=""""70.4""""y=""""316.8""""x=""""707.8"""" fill=""""red""""/></svg>"",""76"",""stim_present"",""test"",""red"",""middle"",""html-keyboard-response"",""68"",""92243"",""0.0-3.0-0.0-1.20"",""afge"",""true"""
"317.5049999845214,""<svg height=""""704"""" width=""""1486""""><rect height=""""70.4"""" width=""""70.4""""y=""""316.8""""x=""""371.5"""" fill=""""red""""/></svg>"",""83"",""stim_present"",""test"",""red"",""left"",""html-keyboard-response"",""70"",""93069"",""0.0-3.0-0.0-1.21"",""afge"",""false"""
"460.94000001903623,""<svg height=""""704"""" width=""""1486""""><rect height=""""70.4"""" width=""""70.4""""y=""""316.8""""x=""""371.5"""" fill=""""green""""/></svg>"",""83"",""stim_present"",""test"",""green"",""left"",""html-keyboard-response"",""72"",""94034"",""0.0-3.0-0.0-1.22"",""afge"",""true"""
"284.9449999630451,""<svg height=""""704"""" width=""""1486""""><rect height=""""70.4"""" width=""""70.4""""y=""""316.8""""x=""""1114.5"""" fill=""""green""""/></svg>"",""76"",""stim_present"",""test"",""green"",""right"",""html-keyboard-response"",""74"",""94831"",""0.0-3.0-0.0-1.23"",""afge"",""false"""
"719.8349999962375,""<svg height=""""704"""" width=""""1486""""><rect height=""""70.4"""" width=""""70.4""""y=""""316.8""""x=""""707.8"""" fill=""""green""""/></svg>"",""83"",""stim_present"",""test"",""green"",""middle"",""html-keyboard-response"",""76"",""96059"",""0.0-3.0-0.0-1.24"",""afge"",""true"""
"538.8449999736622,""<svg height=""""704"""" width=""""1486""""><rect height=""""70.4"""" width=""""70.4""""y=""""316.8""""x=""""371.5"""" fill=""""red""""/></svg>"",""76"",""stim_present"",""test"",""red"",""left"",""html-keyboard-response"",""78"",""97112"",""0.0-3.0-0.0-1.25"",""afge"",""true"""
"543.7949999468401,""<svg height=""""704"""" width=""""1486""""><rect height=""""70.4"""" width=""""70.4""""y=""""316.8""""x=""""371.5"""" fill=""""green""""/></svg>"",""83"",""stim_present"",""test"",""green"",""left"",""html-keyboard-response"",""80"",""98159"",""0.0-3.0-0.0-1.26"",""afge"",""true"""
"494.5350000052713,""<svg height=""""704"""" width=""""1486""""><rect height=""""70.4"""" width=""""70.4""""y=""""316.8""""x=""""1114.5"""" fill=""""green""""/></svg>"",""83"",""stim_present"",""test"",""green"",""right"",""html-keyboard-response"",""82"",""99161"",""0.0-3.0-0.0-1.27"",""afge"",""true"""
"356.7649999749847,""<svg height=""""704"""" width=""""1486""""><rect height=""""70.4"""" width=""""70.4""""y=""""316.8""""x=""""1114.5"""" fill=""""red""""/></svg>"",""76"",""stim_present"",""test"",""red"",""right"",""html-keyboard-response"",""84"",""100022"",""0.0-3.0-0.0-1.28"",""afge"",""true"""
"491.35499994736165,""<svg height=""""704"""" width=""""1486""""><rect height=""""70.4"""" width=""""70.4""""y=""""316.8""""x=""""707.8"""" fill=""""red""""/></svg>"",""76"",""stim_present"",""test"",""red"",""middle"",""html-keyboard-response"",""86"",""101025"",""0.0-3.0-0.0-1.29"",""afge"",""true"""
"632.7949999831617,""<svg height=""""704"""" width=""""1486""""><rect height=""""70.4"""" width=""""70.4""""y=""""316.8""""x=""""371.5"""" fill=""""green""""/></svg>"",""83"",""stim_present"",""test"",""green"",""left"",""html-keyboard-response"",""88"",""102169"",""0.0-3.0-0.0-1.30"",""afge"",""true"""
"468.9950000029057,""<svg height=""""704"""" width=""""1486""""><rect height=""""70.4"""" width=""""70.4""""y=""""316.8""""x=""""1114.5"""" fill=""""green""""/></svg>"",""83"",""stim_present"",""test"",""green"",""right"",""html-keyboard-response"",""90"",""103149"",""0.0-3.0-0.0-1.31"",""afge"",""true"""
"313.2099999929778,""<svg height=""""704"""" width=""""1486""""><rect height=""""70.4"""" width=""""70.4""""y=""""316.8""""x=""""1114.5"""" fill=""""red""""/></svg>"",""76"",""stim_present"",""test"",""red"",""right"",""html-keyboard-response"",""92"",""103972"",""0.0-3.0-0.0-1.32"",""afge"",""true"""
"292.99500002525747,""<svg height=""""704"""" width=""""1486""""><rect height=""""70.4"""" width=""""70.4""""y=""""316.8""""x=""""371.5"""" fill=""""red""""/></svg>"",""83"",""stim_present"",""test"",""red"",""left"",""html-keyboard-response"",""94"",""104776"",""0.0-3.0-0.0-1.33"",""afge"",""false"""
"678.5999999847263,""<svg height=""""704"""" width=""""1486""""><rect height=""""70.4"""" width=""""70.4""""y=""""316.8""""x=""""707.8"""" fill=""""green""""/></svg>"",""83"",""stim_present"",""test"",""green"",""middle"",""html-keyboard-response"",""96"",""105963"",""0.0-3.0-0.0-1.34"",""afge"",""true"""
"494.1450000042096,""<svg height=""""704"""" width=""""1486""""><rect height=""""70.4"""" width=""""70.4""""y=""""316.8""""x=""""707.8"""" fill=""""red""""/></svg>"",""76"",""stim_present"",""test"",""red"",""middle"",""html-keyboard-response"",""98"",""106961"",""0.0-3.0-0.0-1.35"",""afge"",""true"""
"363.69999998714775,""<svg height=""""704"""" width=""""1486""""><rect height=""""70.4"""" width=""""70.4""""y=""""316.8""""x=""""707.8"""" fill=""""red""""/></svg>"",""76"",""stim_present"",""test"",""red"",""middle"",""html-keyboard-response"",""101"",""120232"",""0.0-3.0-0.1-1.36"",""afge"",""true"""
"456.31000003777444,""<svg height=""""704"""" width=""""1486""""><rect height=""""70.4"""" width=""""70.4""""y=""""316.8""""x=""""707.8"""" fill=""""green""""/></svg>"",""83"",""stim_present"",""test"",""green"",""middle"",""html-keyboard-response"",""103"",""121203"",""0.0-3.0-0.1-1.37"",""afge"",""true"""
"456.92999998573214,""<svg height=""""704"""" width=""""1486""""><rect height=""""70.4"""" width=""""70.4""""y=""""316.8""""x=""""1114.5"""" fill=""""red""""/></svg>"",""76"",""stim_present"",""test"",""red"",""right"",""html-keyboard-response"",""105"",""122167"",""0.0-3.0-0.1-1.38"",""afge"",""true"""
"434.82000002404675,""<svg height=""""704"""" width=""""1486""""><rect height=""""70.4"""" width=""""70.4""""y=""""316.8""""x=""""371.5"""" fill=""""green""""/></svg>"",""83"",""stim_present"",""test"",""green"",""left"",""html-keyboard-response"",""107"",""123118"",""0.0-3.0-0.1-1.39"",""afge"",""true"""
"492.6850000047125,""<svg height=""""704"""" width=""""1486""""><rect height=""""70.4"""" width=""""70.4""""y=""""316.8""""x=""""1114.5"""" fill=""""green""""/></svg>"",""83"",""stim_present"",""test"",""green"",""right"",""html-keyboard-response"",""109"",""124116"",""0.0-3.0-0.1-1.40"",""afge"",""true"""
"481.91999999107793,""<svg height=""""704"""" width=""""1486""""><rect height=""""70.4"""" width=""""70.4""""y=""""316.8""""x=""""371.5"""" fill=""""red""""/></svg>"",""76"",""stim_present"",""test"",""red"",""left"",""html-keyboard-response"",""111"",""125109"",""0.0-3.0-0.1-1.41"",""afge"",""true"""
"477.8799999621697,""<svg height=""""704"""" width=""""1486""""><rect height=""""70.4"""" width=""""70.4""""y=""""316.8""""x=""""707.8"""" fill=""""red""""/></svg>"",""76"",""stim_present"",""test"",""red"",""middle"",""html-keyboard-response"",""113"",""126098"",""0.0-3.0-0.1-1.42"",""afge"",""true"""
"320.04500000039116,""<svg height=""""704"""" width=""""1486""""><rect height=""""70.4"""" width=""""70.4""""y=""""316.8""""x=""""707.8"""" fill=""""green""""/></svg>"",""83"",""stim_present"",""test"",""green"",""middle"",""html-keyboard-response"",""115"",""126932"",""0.0-3.0-0.1-1.43"",""afge"",""true"""
"349.97999999905005,""<svg height=""""704"""" width=""""1486""""><rect height=""""70.4"""" width=""""70.4""""y=""""316.8""""x=""""371.5"""" fill=""""green""""/></svg>"",""83"",""stim_present"",""test"",""green"",""left"",""html-keyboard-response"",""117"",""127790"",""0.0-3.0-0.1-1.44"",""afge"",""true"""
"345.88999999687076,""<svg height=""""704"""" width=""""1486""""><rect height=""""70.4"""" width=""""70.4""""y=""""316.8""""x=""""371.5"""" fill=""""red""""/></svg>"",""83"",""stim_present"",""test"",""red"",""left"",""html-keyboard-response"",""119"",""128645"",""0.0-3.0-0.1-1.45"",""afge"",""false"""
"587.9549999954179,""<svg height=""""704"""" width=""""1486""""><rect height=""""70.4"""" width=""""70.4""""y=""""316.8""""x=""""1114.5"""" fill=""""red""""/></svg>"",""76"",""stim_present"",""test"",""red"",""right"",""html-keyboard-response"",""121"",""129740"",""0.0-3.0-0.1-1.46"",""afge"",""true"""
"362.36000002827495,""<svg height=""""704"""" width=""""1486""""><rect height=""""70.4"""" width=""""70.4""""y=""""316.8""""x=""""1114.5"""" fill=""""green""""/></svg>"",""76"",""stim_present"",""test"",""green"",""right"",""html-keyboard-response"",""123"",""130613"",""0.0-3.0-0.1-1.47"",""afge"",""false"""
"489.2950000357814,""<svg height=""""704"""" width=""""1486""""><rect height=""""70.4"""" width=""""70.4""""y=""""316.8""""x=""""371.5"""" fill=""""green""""/></svg>"",""83"",""stim_present"",""test"",""green"",""left"",""html-keyboard-response"",""125"",""131613"",""0.0-3.0-0.1-1.48"",""afge"",""true"""
"368.04999999003485,""<svg height=""""704"""" width=""""1486""""><rect height=""""70.4"""" width=""""70.4""""y=""""316.8""""x=""""707.8"""" fill=""""red""""/></svg>"",""76"",""stim_present"",""test"",""red"",""middle"",""html-keyboard-response"",""127"",""132492"",""0.0-3.0-0.1-1.49"",""afge"",""true"""
"449.4350000168197,""<svg height=""""704"""" width=""""1486""""><rect height=""""70.4"""" width=""""70.4""""y=""""316.8""""x=""""1114.5"""" fill=""""red""""/></svg>"",""76"",""stim_present"",""test"",""red"",""right"",""html-keyboard-response"",""129"",""133451"",""0.0-3.0-0.1-1.50"",""afge"",""true"""
"606.0649999999441,""<svg height=""""704"""" width=""""1486""""><rect height=""""70.4"""" width=""""70.4""""y=""""316.8""""x=""""371.5"""" fill=""""red""""/></svg>"",""76"",""stim_present"",""test"",""red"",""left"",""html-keyboard-response"",""131"",""134566"",""0.0-3.0-0.1-1.51"",""afge"",""true"""
"367.2950000036508,""<svg height=""""704"""" width=""""1486""""><rect height=""""70.4"""" width=""""70.4""""y=""""316.8""""x=""""707.8"""" fill=""""green""""/></svg>"",""83"",""stim_present"",""test"",""green"",""middle"",""html-keyboard-response"",""133"",""135448"",""0.0-3.0-0.1-1.52"",""afge"",""true"""
"291.23999999137595,""<svg height=""""704"""" width=""""1486""""><rect height=""""70.4"""" width=""""70.4""""y=""""316.8""""x=""""1114.5"""" fill=""""green""""/></svg>"",""76"",""stim_present"",""test"",""green"",""right"",""html-keyboard-response"",""135"",""136251"",""0.0-3.0-0.1-1.53"",""afge"",""false"""
"767.0400000060908,""<svg height=""""704"""" width=""""1486""""><rect height=""""70.4"""" width=""""70.4""""y=""""316.8""""x=""""371.5"""" fill=""""red""""/></svg>"",""76"",""stim_present"",""test"",""red"",""left"",""html-keyboard-response"",""137"",""137529"",""0.0-3.0-0.1-1.54"",""afge"",""true"""
"552.1350000053644,""<svg height=""""704"""" width=""""1486""""><rect height=""""70.4"""" width=""""70.4""""y=""""316.8""""x=""""1114.5"""" fill=""""green""""/></svg>"",""83"",""stim_present"",""test"",""green"",""right"",""html-keyboard-response"",""139"",""138595"",""0.0-3.0-0.1-1.55"",""afge"",""true"""
"443.99499997962266,""<svg height=""""704"""" width=""""1486""""><rect height=""""70.4"""" width=""""70.4""""y=""""316.8""""x=""""1114.5"""" fill=""""red""""/></svg>"",""83"",""stim_present"",""test"",""red"",""right"",""html-keyboard-response"",""141"",""139555"",""0.0-3.0-0.1-1.56"",""afge"",""false"""
"1465.7449999940582,""<svg height=""""704"""" width=""""1486""""><rect height=""""70.4"""" width=""""70.4""""y=""""316.8""""x=""""707.8"""" fill=""""green""""/></svg>"",""76"",""stim_present"",""test"",""green"",""middle"",""html-keyboard-response"",""143"",""141528"",""0.0-3.0-0.1-1.57"",""afge"",""false"""
"724.4649999774992,""<svg height=""""704"""" width=""""1486""""><rect height=""""70.4"""" width=""""70.4""""y=""""316.8""""x=""""707.8"""" fill=""""red""""/></svg>"",""76"",""stim_present"",""test"",""red"",""middle"",""html-keyboard-response"",""145"",""142759"",""0.0-3.0-0.1-1.58"",""afge"",""true"""
"581.9950000150129,""<svg height=""""704"""" width=""""1486""""><rect height=""""70.4"""" width=""""70.4""""y=""""316.8""""x=""""371.5"""" fill=""""green""""/></svg>"",""83"",""stim_present"",""test"",""green"",""left"",""html-keyboard-response"",""147"",""143861"",""0.0-3.0-0.1-1.59"",""afge"",""true"""
"521.6699999873526,""<svg height=""""704"""" width=""""1486""""><rect height=""""70.4"""" width=""""70.4""""y=""""316.8""""x=""""1114.5"""" fill=""""red""""/></svg>"",""76"",""stim_present"",""test"",""red"",""right"",""html-keyboard-response"",""149"",""144887"",""0.0-3.0-0.1-1.60"",""afge"",""true"""
"517.9749999660999,""<svg height=""""704"""" width=""""1486""""><rect height=""""70.4"""" width=""""70.4""""y=""""316.8""""x=""""707.8"""" fill=""""green""""/></svg>"",""83"",""stim_present"",""test"",""green"",""middle"",""html-keyboard-response"",""151"",""145913"",""0.0-3.0-0.1-1.61"",""afge"",""true"""
"533.1099999602884,""<svg height=""""704"""" width=""""1486""""><rect height=""""70.4"""" width=""""70.4""""y=""""316.8""""x=""""371.5"""" fill=""""red""""/></svg>"",""76"",""stim_present"",""test"",""red"",""left"",""html-keyboard-response"",""153"",""146956"",""0.0-3.0-0.1-1.62"",""afge"",""true"""
"717.6750000216998,""<svg height=""""704"""" width=""""1486""""><rect height=""""70.4"""" width=""""70.4""""y=""""316.8""""x=""""1114.5"""" fill=""""green""""/></svg>"",""83"",""stim_present"",""test"",""green"",""right"",""html-keyboard-response"",""155"",""148179"",""0.0-3.0-0.1-1.63"",""afge"",""true"""
"435.41999999433756,""<svg height=""""704"""" width=""""1486""""><rect height=""""70.4"""" width=""""70.4""""y=""""316.8""""x=""""371.5"""" fill=""""green""""/></svg>"",""83"",""stim_present"",""test"",""green"",""left"",""html-keyboard-response"",""157"",""149132"",""0.0-3.0-0.1-1.64"",""afge"",""true"""
"372.5149999954738,""<svg height=""""704"""" width=""""1486""""><rect height=""""70.4"""" width=""""70.4""""y=""""316.8""""x=""""707.8"""" fill=""""red""""/></svg>"",""76"",""stim_present"",""test"",""red"",""middle"",""html-keyboard-response"",""159"",""150019"",""0.0-3.0-0.1-1.65"",""afge"",""true"""
"500.49000000581145,""<svg height=""""704"""" width=""""1486""""><rect height=""""70.4"""" width=""""70.4""""y=""""316.8""""x=""""707.8"""" fill=""""green""""/></svg>"",""83"",""stim_present"",""test"",""green"",""middle"",""html-keyboard-response"",""161"",""151024"",""0.0-3.0-0.1-1.66"",""afge"",""true"""
"334.03999998699874,""<svg height=""""704"""" width=""""1486""""><rect height=""""70.4"""" width=""""70.4""""y=""""316.8""""x=""""1114.5"""" fill=""""red""""/></svg>"",""76"",""stim_present"",""test"",""red"",""right"",""html-keyboard-response"",""163"",""151862"",""0.0-3.0-0.1-1.67"",""afge"",""true"""
"496.7750000068918,""<svg height=""""704"""" width=""""1486""""><rect height=""""70.4"""" width=""""70.4""""y=""""316.8""""x=""""707.8"""" fill=""""red""""/></svg>"",""76"",""stim_present"",""test"",""red"",""middle"",""html-keyboard-response"",""165"",""152873"",""0.0-3.0-0.1-1.68"",""afge"",""true"""
"271.70500002102926,""<svg height=""""704"""" width=""""1486""""><rect height=""""70.4"""" width=""""70.4""""y=""""316.8""""x=""""371.5"""" fill=""""green""""/></svg>"",""83"",""stim_present"",""test"",""green"",""left"",""html-keyboard-response"",""167"",""153655"",""0.0-3.0-0.1-1.69"",""afge"",""true"""
"486.670000012964,""<svg height=""""704"""" width=""""1486""""><rect height=""""70.4"""" width=""""70.4""""y=""""316.8""""x=""""1114.5"""" fill=""""green""""/></svg>"",""83"",""stim_present"",""test"",""green"",""right"",""html-keyboard-response"",""169"",""154648"",""0.0-3.0-0.1-1.70"",""afge"",""true"""
"327.95499998610467,""<svg height=""""704"""" width=""""1486""""><rect height=""""70.4"""" width=""""70.4""""y=""""316.8""""x=""""371.5"""" fill=""""red""""/></svg>"",""76"",""stim_present"",""test"",""red"",""left"",""html-keyboard-response"",""171"",""155486"",""0.0-3.0-0.1-1.71"",""afge"",""true"""
"433.1399999791756,""<svg height=""""704"""" width=""""1486""""><rect height=""""70.4"""" width=""""70.4""""y=""""316.8""""x=""""371.5"""" fill=""""red""""/></svg>"",""76"",""stim_present"",""test"",""red"",""left"",""html-keyboard-response"",""174"",""162483"",""0.0-3.0-0.2-1.72"",""afge"",""true"""
"358.22999995434657,""<svg height=""""704"""" width=""""1486""""><rect height=""""70.4"""" width=""""70.4""""y=""""316.8""""x=""""1114.5"""" fill=""""green""""/></svg>"",""83"",""stim_present"",""test"",""green"",""right"",""html-keyboard-response"",""176"",""163352"",""0.0-3.0-0.2-1.73"",""afge"",""true"""
"424.7249999898486,""<svg height=""""704"""" width=""""1486""""><rect height=""""70.4"""" width=""""70.4""""y=""""316.8""""x=""""371.5"""" fill=""""green""""/></svg>"",""83"",""stim_present"",""test"",""green"",""left"",""html-keyboard-response"",""178"",""164288"",""0.0-3.0-0.2-1.74"",""afge"",""true"""
"397.0700000063516,""<svg height=""""704"""" width=""""1486""""><rect height=""""70.4"""" width=""""70.4""""y=""""316.8""""x=""""1114.5"""" fill=""""red""""/></svg>"",""76"",""stim_present"",""test"",""red"",""right"",""html-keyboard-response"",""180"",""165188"",""0.0-3.0-0.2-1.75"",""afge"",""true"""
"333.8799999910407,""<svg height=""""704"""" width=""""1486""""><rect height=""""70.4"""" width=""""70.4""""y=""""316.8""""x=""""707.8"""" fill=""""red""""/></svg>"",""76"",""stim_present"",""test"",""red"",""middle"",""html-keyboard-response"",""182"",""166026"",""0.0-3.0-0.2-1.76"",""afge"",""true"""
"376.9800000009127,""<svg height=""""704"""" width=""""1486""""><rect height=""""70.4"""" width=""""70.4""""y=""""316.8""""x=""""707.8"""" fill=""""green""""/></svg>"",""76"",""stim_present"",""test"",""green"",""middle"",""html-keyboard-response"",""184"",""166913"",""0.0-3.0-0.2-1.77"",""afge"",""false"""
"519.0299999667332,""<svg height=""""704"""" width=""""1486""""><rect height=""""70.4"""" width=""""70.4""""y=""""316.8""""x=""""371.5"""" fill=""""red""""/></svg>"",""76"",""stim_present"",""test"",""red"",""left"",""html-keyboard-response"",""186"",""167944"",""0.0-3.0-0.2-1.78"",""afge"",""true"""
"339.58499995060265,""<svg height=""""704"""" width=""""1486""""><rect height=""""70.4"""" width=""""70.4""""y=""""316.8""""x=""""707.8"""" fill=""""red""""/></svg>"",""76"",""stim_present"",""test"",""red"",""middle"",""html-keyboard-response"",""188"",""168790"",""0.0-3.0-0.2-1.79"",""afge"",""true"""
"364.3700000247918,""<svg height=""""704"""" width=""""1486""""><rect height=""""70.4"""" width=""""70.4""""y=""""316.8""""x=""""707.8"""" fill=""""green""""/></svg>"",""76"",""stim_present"",""test"",""green"",""middle"",""html-keyboard-response"",""190"",""169665"",""0.0-3.0-0.2-1.80"",""afge"",""false"""
"561.7399999755435,""<svg height=""""704"""" width=""""1486""""><rect height=""""70.4"""" width=""""70.4""""y=""""316.8""""x=""""1114.5"""" fill=""""red""""/></svg>"",""76"",""stim_present"",""test"",""red"",""right"",""html-keyboard-response"",""192"",""170736"",""0.0-3.0-0.2-1.81"",""afge"",""true"""
"786.2350000068545,""<svg height=""""704"""" width=""""1486""""><rect height=""""70.4"""" width=""""70.4""""y=""""316.8""""x=""""371.5"""" fill=""""green""""/></svg>"",""83"",""stim_present"",""test"",""green"",""left"",""html-keyboard-response"",""194"",""172025"",""0.0-3.0-0.2-1.82"",""afge"",""true"""
"481.1699999845587,""<svg height=""""704"""" width=""""1486""""><rect height=""""70.4"""" width=""""70.4""""y=""""316.8""""x=""""1114.5"""" fill=""""green""""/></svg>"",""83"",""stim_present"",""test"",""green"",""right"",""html-keyboard-response"",""196"",""173017"",""0.0-3.0-0.2-1.83"",""afge"",""true"""
"365.7200000016019,""<svg height=""""704"""" width=""""1486""""><rect height=""""70.4"""" width=""""70.4""""y=""""316.8""""x=""""707.8"""" fill=""""green""""/></svg>"",""83"",""stim_present"",""test"",""green"",""middle"",""html-keyboard-response"",""198"",""173898"",""0.0-3.0-0.2-1.84"",""afge"",""true"""
"465.16000002156943,""<svg height=""""704"""" width=""""1486""""><rect height=""""70.4"""" width=""""70.4""""y=""""316.8""""x=""""371.5"""" fill=""""green""""/></svg>"",""83"",""stim_present"",""test"",""green"",""left"",""html-keyboard-response"",""200"",""174872"",""0.0-3.0-0.2-1.85"",""afge"",""true"""
"409.8050000029616,""<svg height=""""704"""" width=""""1486""""><rect height=""""70.4"""" width=""""70.4""""y=""""316.8""""x=""""707.8"""" fill=""""red""""/></svg>"",""76"",""stim_present"",""test"",""red"",""middle"",""html-keyboard-response"",""202"",""175782"",""0.0-3.0-0.2-1.86"",""afge"",""true"""
"319.1550000337884,""<svg height=""""704"""" width=""""1486""""><rect height=""""70.4"""" width=""""70.4""""y=""""316.8""""x=""""371.5"""" fill=""""red""""/></svg>"",""83"",""stim_present"",""test"",""red"",""left"",""html-keyboard-response"",""204"",""176604"",""0.0-3.0-0.2-1.87"",""afge"",""false"""
"420.7649999880232,""<svg height=""""704"""" width=""""1486""""><rect height=""""70.4"""" width=""""70.4""""y=""""316.8""""x=""""1114.5"""" fill=""""red""""/></svg>"",""76"",""stim_present"",""test"",""red"",""right"",""html-keyboard-response"",""206"",""177533"",""0.0-3.0-0.2-1.88"",""afge"",""true"""
"432.2350000147708,""<svg height=""""704"""" width=""""1486""""><rect height=""""70.4"""" width=""""70.4""""y=""""316.8""""x=""""1114.5"""" fill=""""green""""/></svg>"",""83"",""stim_present"",""test"",""green"",""right"",""html-keyboard-response"",""208"",""178468"",""0.0-3.0-0.2-1.89"",""afge"",""true"""
"386.11999998101965,""<svg height=""""704"""" width=""""1486""""><rect height=""""70.4"""" width=""""70.4""""y=""""316.8""""x=""""707.8"""" fill=""""red""""/></svg>"",""76"",""stim_present"",""test"",""red"",""middle"",""html-keyboard-response"",""210"",""179366"",""0.0-3.0-0.2-1.90"",""afge"",""true"""
"396.6750000254251,""<svg height=""""704"""" width=""""1486""""><rect height=""""70.4"""" width=""""70.4""""y=""""316.8""""x=""""371.5"""" fill=""""green""""/></svg>"",""83"",""stim_present"",""test"",""green"",""left"",""html-keyboard-response"",""212"",""180272"",""0.0-3.0-0.2-1.91"",""afge"",""true"""
"617.9300000076182,""<svg height=""""704"""" width=""""1486""""><rect height=""""70.4"""" width=""""70.4""""y=""""316.8""""x=""""371.5"""" fill=""""red""""/></svg>"",""76"",""stim_present"",""test"",""red"",""left"",""html-keyboard-response"",""214"",""181402"",""0.0-3.0-0.2-1.92"",""afge"",""true"""
"367.45499999960884,""<svg height=""""704"""" width=""""1486""""><rect height=""""70.4"""" width=""""70.4""""y=""""316.8""""x=""""1114.5"""" fill=""""green""""/></svg>"",""83"",""stim_present"",""test"",""green"",""right"",""html-keyboard-response"",""216"",""182277"",""0.0-3.0-0.2-1.93"",""afge"",""true"""
"463.3599999942817,""<svg height=""""704"""" width=""""1486""""><rect height=""""70.4"""" width=""""70.4""""y=""""316.8""""x=""""1114.5"""" fill=""""red""""/></svg>"",""76"",""stim_present"",""test"",""red"",""right"",""html-keyboard-response"",""218"",""183244"",""0.0-3.0-0.2-1.94"",""afge"",""true"""
"533.5299999569543,""<svg height=""""704"""" width=""""1486""""><rect height=""""70.4"""" width=""""70.4""""y=""""316.8""""x=""""707.8"""" fill=""""green""""/></svg>"",""83"",""stim_present"",""test"",""green"",""middle"",""html-keyboard-response"",""220"",""184281"",""0.0-3.0-0.2-1.95"",""afge"",""true"""
"353.03499997826293,""<svg height=""""704"""" width=""""1486""""><rect height=""""70.4"""" width=""""70.4""""y=""""316.8""""x=""""1114.5"""" fill=""""red""""/></svg>"",""76"",""stim_present"",""test"",""red"",""right"",""html-keyboard-response"",""222"",""185144"",""0.0-3.0-0.2-1.96"",""afge"",""true"""
"495.7200000062585,""<svg height=""""704"""" width=""""1486""""><rect height=""""70.4"""" width=""""70.4""""y=""""316.8""""x=""""371.5"""" fill=""""green""""/></svg>"",""83"",""stim_present"",""test"",""green"",""left"",""html-keyboard-response"",""224"",""186157"",""0.0-3.0-0.2-1.97"",""afge"",""true"""
"321.06499996734783,""<svg height=""""704"""" width=""""1486""""><rect height=""""70.4"""" width=""""70.4""""y=""""316.8""""x=""""1114.5"""" fill=""""green""""/></svg>"",""76"",""stim_present"",""test"",""green"",""right"",""html-keyboard-response"",""226"",""186987"",""0.0-3.0-0.2-1.98"",""afge"",""false"""
"522.8450000286102,""<svg height=""""704"""" width=""""1486""""><rect height=""""70.4"""" width=""""70.4""""y=""""316.8""""x=""""707.8"""" fill=""""green""""/></svg>"",""83"",""stim_present"",""test"",""green"",""middle"",""html-keyboard-response"",""228"",""188020"",""0.0-3.0-0.2-1.99"",""afge"",""true"""
"364.21000002883375,""<svg height=""""704"""" width=""""1486""""><rect height=""""70.4"""" width=""""70.4""""y=""""316.8""""x=""""707.8"""" fill=""""red""""/></svg>"",""76"",""stim_present"",""test"",""red"",""middle"",""html-keyboard-response"",""230"",""188891"",""0.0-3.0-0.2-1.100"",""afge"",""true"""
"531.7849999992177,""<svg height=""""704"""" width=""""1486""""><rect height=""""70.4"""" width=""""70.4""""y=""""316.8""""x=""""371.5"""" fill=""""red""""/></svg>"",""76"",""stim_present"",""test"",""red"",""left"",""html-keyboard-response"",""232"",""189931"",""0.0-3.0-0.2-1.101"",""afge"",""true"""
"474.8399999807589,""<svg height=""""704"""" width=""""1486""""><rect height=""""70.4"""" width=""""70.4""""y=""""316.8""""x=""""707.8"""" fill=""""green""""/></svg>"",""83"",""stim_present"",""test"",""green"",""middle"",""html-keyboard-response"",""234"",""190910"",""0.0-3.0-0.2-1.102"",""afge"",""true"""
"493.30000003101304,""<svg height=""""704"""" width=""""1486""""><rect height=""""70.4"""" width=""""70.4""""y=""""316.8""""x=""""707.8"""" fill=""""red""""/></svg>"",""76"",""stim_present"",""test"",""red"",""middle"",""html-keyboard-response"",""236"",""191921"",""0.0-3.0-0.2-1.103"",""afge"",""true"""
"491.73000000882894,""<svg height=""""704"""" width=""""1486""""><rect height=""""70.4"""" width=""""70.4""""y=""""316.8""""x=""""1114.5"""" fill=""""red""""/></svg>"",""76"",""stim_present"",""test"",""red"",""right"",""html-keyboard-response"",""238"",""192915"",""0.0-3.0-0.2-1.104"",""afge"",""true"""
"374.56999998539686,""<svg height=""""704"""" width=""""1486""""><rect height=""""70.4"""" width=""""70.4""""y=""""316.8""""x=""""1114.5"""" fill=""""green""""/></svg>"",""76"",""stim_present"",""test"",""green"",""right"",""html-keyboard-response"",""240"",""193805"",""0.0-3.0-0.2-1.105"",""afge"",""false"""
"441.8650000006892,""<svg height=""""704"""" width=""""1486""""><rect height=""""70.4"""" width=""""70.4""""y=""""316.8""""x=""""371.5"""" fill=""""red""""/></svg>"",""83"",""stim_present"",""test"",""red"",""left"",""html-keyboard-response"",""242"",""194758"",""0.0-3.0-0.2-1.106"",""afge"",""false"""
"790.1199999614619,""<svg height=""""704"""" width=""""1486""""><rect height=""""70.4"""" width=""""70.4""""y=""""316.8""""x=""""371.5"""" fill=""""green""""/></svg>"",""83"",""stim_present"",""test"",""green"",""left"",""html-keyboard-response"",""244"",""196060"",""0.0-3.0-0.2-1.107"",""afge"",""true"""
"456.8449999787845,""<svg height=""""704"""" width=""""1486""""><rect height=""""70.4"""" width=""""70.4""""y=""""316.8""""x=""""371.5"""" fill=""""red""""/></svg>"",""76"",""stim_present"",""test"",""red"",""left"",""html-keyboard-response"",""247"",""219417"",""0.0-3.0-0.3-1.108"",""afge"",""true"""
"339.71499995095655,""<svg height=""""704"""" width=""""1486""""><rect height=""""70.4"""" width=""""70.4""""y=""""316.8""""x=""""707.8"""" fill=""""red""""/></svg>"",""76"",""stim_present"",""test"",""red"",""middle"",""html-keyboard-response"",""249"",""220264"",""0.0-3.0-0.3-1.109"",""afge"",""true"""
"388.63499998115003,""<svg height=""""704"""" width=""""1486""""><rect height=""""70.4"""" width=""""70.4""""y=""""316.8""""x=""""1114.5"""" fill=""""green""""/></svg>"",""83"",""stim_present"",""test"",""green"",""right"",""html-keyboard-response"",""251"",""221171"",""0.0-3.0-0.3-1.110"",""afge"",""true"""
"390.7300000428222,""<svg height=""""704"""" width=""""1486""""><rect height=""""70.4"""" width=""""70.4""""y=""""316.8""""x=""""707.8"""" fill=""""green""""/></svg>"",""83"",""stim_present"",""test"",""green"",""middle"",""html-keyboard-response"",""253"",""222064"",""0.0-3.0-0.3-1.111"",""afge"",""true"""
"259.699999995064,""<svg height=""""704"""" width=""""1486""""><rect height=""""70.4"""" width=""""70.4""""y=""""316.8""""x=""""1114.5"""" fill=""""red""""/></svg>"",""76"",""stim_present"",""test"",""red"",""right"",""html-keyboard-response"",""255"",""222836"",""0.0-3.0-0.3-1.112"",""afge"",""true"""
"322.56000000052154,""<svg height=""""704"""" width=""""1486""""><rect height=""""70.4"""" width=""""70.4""""y=""""316.8""""x=""""371.5"""" fill=""""green""""/></svg>"",""83"",""stim_present"",""test"",""green"",""left"",""html-keyboard-response"",""257"",""223672"",""0.0-3.0-0.3-1.113"",""afge"",""true"""
"464.4099999568425,""<svg height=""""704"""" width=""""1486""""><rect height=""""70.4"""" width=""""70.4""""y=""""316.8""""x=""""371.5"""" fill=""""green""""/></svg>"",""83"",""stim_present"",""test"",""green"",""left"",""html-keyboard-response"",""259"",""224639"",""0.0-3.0-0.3-1.114"",""afge"",""true"""
"495.73000002419576,""<svg height=""""704"""" width=""""1486""""><rect height=""""70.4"""" width=""""70.4""""y=""""316.8""""x=""""1114.5"""" fill=""""red""""/></svg>"",""76"",""stim_present"",""test"",""red"",""right"",""html-keyboard-response"",""261"",""225644"",""0.0-3.0-0.3-1.115"",""afge"",""true"""
"462.9049999639392,""<svg height=""""704"""" width=""""1486""""><rect height=""""70.4"""" width=""""70.4""""y=""""316.8""""x=""""707.8"""" fill=""""red""""/></svg>"",""76"",""stim_present"",""test"",""red"",""middle"",""html-keyboard-response"",""263"",""226624"",""0.0-3.0-0.3-1.116"",""afge"",""true"""
"559.0850000153296,""<svg height=""""704"""" width=""""1486""""><rect height=""""70.4"""" width=""""70.4""""y=""""316.8""""x=""""707.8"""" fill=""""green""""/></svg>"",""83"",""stim_present"",""test"",""green"",""middle"",""html-keyboard-response"",""265"",""227694"",""0.0-3.0-0.3-1.117"",""afge"",""true"""
"680.4300000076182,""<svg height=""""704"""" width=""""1486""""><rect height=""""70.4"""" width=""""70.4""""y=""""316.8""""x=""""1114.5"""" fill=""""green""""/></svg>"",""76"",""stim_present"",""test"",""green"",""right"",""html-keyboard-response"",""267"",""228885"",""0.0-3.0-0.3-1.118"",""afge"",""false"""
"495.49499998101965,""<svg height=""""704"""" width=""""1486""""><rect height=""""70.4"""" width=""""70.4""""y=""""316.8""""x=""""371.5"""" fill=""""red""""/></svg>"",""76"",""stim_present"",""test"",""red"",""left"",""html-keyboard-response"",""269"",""229883"",""0.0-3.0-0.3-1.119"",""afge"",""true"""
"507.7999999630265,""<svg height=""""704"""" width=""""1486""""><rect height=""""70.4"""" width=""""70.4""""y=""""316.8""""x=""""371.5"""" fill=""""red""""/></svg>"",""76"",""stim_present"",""test"",""red"",""left"",""html-keyboard-response"",""271"",""230894"",""0.0-3.0-0.3-1.120"",""afge"",""true"""
"303.4750000224449,""<svg height=""""704"""" width=""""1486""""><rect height=""""70.4"""" width=""""70.4""""y=""""316.8""""x=""""1114.5"""" fill=""""red""""/></svg>"",""83"",""stim_present"",""test"",""red"",""right"",""html-keyboard-response"",""273"",""231709"",""0.0-3.0-0.3-1.121"",""afge"",""false"""
"942.3400000086986,""<svg height=""""704"""" width=""""1486""""><rect height=""""70.4"""" width=""""70.4""""y=""""316.8""""x=""""371.5"""" fill=""""green""""/></svg>"",""83"",""stim_present"",""test"",""green"",""left"",""html-keyboard-response"",""275"",""233166"",""0.0-3.0-0.3-1.122"",""afge"",""true"""
"602.7750000357628,""<svg height=""""704"""" width=""""1486""""><rect height=""""70.4"""" width=""""70.4""""y=""""316.8""""x=""""707.8"""" fill=""""red""""/></svg>"",""76"",""stim_present"",""test"",""red"",""middle"",""html-keyboard-response"",""277"",""234271"",""0.0-3.0-0.3-1.123"",""afge"",""true"""
"465.1300000259653,""<svg height=""""704"""" width=""""1486""""><rect height=""""70.4"""" width=""""70.4""""y=""""316.8""""x=""""1114.5"""" fill=""""green""""/></svg>"",""83"",""stim_present"",""test"",""green"",""right"",""html-keyboard-response"",""279"",""235247"",""0.0-3.0-0.3-1.124"",""afge"",""true"""
"470.55999998701736,""<svg height=""""704"""" width=""""1486""""><rect height=""""70.4"""" width=""""70.4""""y=""""316.8""""x=""""707.8"""" fill=""""green""""/></svg>"",""83"",""stim_present"",""test"",""green"",""middle"",""html-keyboard-response"",""281"",""236239"",""0.0-3.0-0.3-1.125"",""afge"",""true"""
"412.47999999905005,""<svg height=""""704"""" width=""""1486""""><rect height=""""70.4"""" width=""""70.4""""y=""""316.8""""x=""""1114.5"""" fill=""""green""""/></svg>"",""83"",""stim_present"",""test"",""green"",""right"",""html-keyboard-response"",""283"",""237154"",""0.0-3.0-0.3-1.126"",""afge"",""true"""
"373.97999997483566,""<svg height=""""704"""" width=""""1486""""><rect height=""""70.4"""" width=""""70.4""""y=""""316.8""""x=""""1114.5"""" fill=""""red""""/></svg>"",""83"",""stim_present"",""test"",""red"",""right"",""html-keyboard-response"",""285"",""238032"",""0.0-3.0-0.3-1.127"",""afge"",""false"""
"371.0799999535084,""<svg height=""""704"""" width=""""1486""""><rect height=""""70.4"""" width=""""70.4""""y=""""316.8""""x=""""707.8"""" fill=""""red""""/></svg>"",""76"",""stim_present"",""test"",""red"",""middle"",""html-keyboard-response"",""287"",""238920"",""0.0-3.0-0.3-1.128"",""afge"",""true"""
"473.5499999951571,""<svg height=""""704"""" width=""""1486""""><rect height=""""70.4"""" width=""""70.4""""y=""""316.8""""x=""""707.8"""" fill=""""green""""/></svg>"",""83"",""stim_present"",""test"",""green"",""middle"",""html-keyboard-response"",""289"",""239897"",""0.0-3.0-0.3-1.129"",""afge"",""true"""
"680.1350000314415,""<svg height=""""704"""" width=""""1486""""><rect height=""""70.4"""" width=""""70.4""""y=""""316.8""""x=""""371.5"""" fill=""""green""""/></svg>"",""83"",""stim_present"",""test"",""green"",""left"",""html-keyboard-response"",""291"",""241094"",""0.0-3.0-0.3-1.130"",""afge"",""true"""
"520.844999991823,""<svg height=""""704"""" width=""""1486""""><rect height=""""70.4"""" width=""""70.4""""y=""""316.8""""x=""""371.5"""" fill=""""red""""/></svg>"",""76"",""stim_present"",""test"",""red"",""left"",""html-keyboard-response"",""293"",""242122"",""0.0-3.0-0.3-1.131"",""afge"",""true"""
"593.5949999839067,""<svg height=""""704"""" width=""""1486""""><rect height=""""70.4"""" width=""""70.4""""y=""""316.8""""x=""""1114.5"""" fill=""""green""""/></svg>"",""83"",""stim_present"",""test"",""green"",""right"",""html-keyboard-response"",""295"",""243224"",""0.0-3.0-0.3-1.132"",""afge"",""true"""
"621.770000027027,""<svg height=""""704"""" width=""""1486""""><rect height=""""70.4"""" width=""""70.4""""y=""""316.8""""x=""""371.5"""" fill=""""green""""/></svg>"",""83"",""stim_present"",""test"",""green"",""left"",""html-keyboard-response"",""297"",""244352"",""0.0-3.0-0.3-1.133"",""afge"",""true"""
"398.11499998904765,""<svg height=""""704"""" width=""""1486""""><rect height=""""70.4"""" width=""""70.4""""y=""""316.8""""x=""""707.8"""" fill=""""red""""/></svg>"",""76"",""stim_present"",""test"",""red"",""middle"",""html-keyboard-response"",""299"",""245261"",""0.0-3.0-0.3-1.134"",""afge"",""true"""
"588.0849999957718,""<svg height=""""704"""" width=""""1486""""><rect height=""""70.4"""" width=""""70.4""""y=""""316.8""""x=""""371.5"""" fill=""""red""""/></svg>"",""76"",""stim_present"",""test"",""red"",""left"",""html-keyboard-response"",""301"",""246358"",""0.0-3.0-0.3-1.135"",""afge"",""true"""
"514.2249999917112,""<svg height=""""704"""" width=""""1486""""><rect height=""""70.4"""" width=""""70.4""""y=""""316.8""""x=""""1114.5"""" fill=""""red""""/></svg>"",""83"",""stim_present"",""test"",""red"",""right"",""html-keyboard-response"",""303"",""247376"",""0.0-3.0-0.3-1.136"",""afge"",""false"""
"654.0249999961816,""<svg height=""""704"""" width=""""1486""""><rect height=""""70.4"""" width=""""70.4""""y=""""316.8""""x=""""707.8"""" fill=""""green""""/></svg>"",""83"",""stim_present"",""test"",""green"",""middle"",""html-keyboard-response"",""305"",""248533"",""0.0-3.0-0.3-1.137"",""afge"",""true"""
"465.21500003291294,""<svg height=""""704"""" width=""""1486""""><rect height=""""70.4"""" width=""""70.4""""y=""""316.8""""x=""""1114.5"""" fill=""""red""""/></svg>"",""76"",""stim_present"",""test"",""red"",""right"",""html-keyboard-response"",""307"",""249506"",""0.0-3.0-0.3-1.138"",""afge"",""true"""
"533.7299999664538,""<svg height=""""704"""" width=""""1486""""><rect height=""""70.4"""" width=""""70.4""""y=""""316.8""""x=""""371.5"""" fill=""""red""""/></svg>"",""76"",""stim_present"",""test"",""red"",""left"",""html-keyboard-response"",""309"",""250543"",""0.0-3.0-0.3-1.139"",""afge"",""true"""
"497.0200000097975,""<svg height=""""704"""" width=""""1486""""><rect height=""""70.4"""" width=""""70.4""""y=""""316.8""""x=""""371.5"""" fill=""""green""""/></svg>"",""83"",""stim_present"",""test"",""green"",""left"",""html-keyboard-response"",""311"",""251544"",""0.0-3.0-0.3-1.140"",""afge"",""true"""
"537.2750000096858,""<svg height=""""704"""" width=""""1486""""><rect height=""""70.4"""" width=""""70.4""""y=""""316.8""""x=""""1114.5"""" fill=""""green""""/></svg>"",""83"",""stim_present"",""test"",""green"",""right"",""html-keyboard-response"",""313"",""252584"",""0.0-3.0-0.3-1.141"",""afge"",""true"""
"471.5650000143796,""<svg height=""""704"""" width=""""1486""""><rect height=""""70.4"""" width=""""70.4""""y=""""316.8""""x=""""707.8"""" fill=""""red""""/></svg>"",""76"",""stim_present"",""test"",""red"",""middle"",""html-keyboard-response"",""315"",""253565"",""0.0-3.0-0.3-1.142"",""afge"",""true"""
"395.3149999724701,""<svg height=""""704"""" width=""""1486""""><rect height=""""70.4"""" width=""""70.4""""y=""""316.8""""x=""""707.8"""" fill=""""green""""/></svg>"",""83"",""stim_present"",""test"",""green"",""middle"",""html-keyboard-response"",""317"",""254469"",""0.0-3.0-0.3-1.143"",""afge"",""true"""
