"rt","stimulus","key_press","type","part","color","position","trial_type","trial_index","time_elapsed","internal_node_id","subject","accuracy"
"597.7499999571592","<svg height=""711"" width=""1390""><rect height=""71.1"" width=""71.1""y=""319.95""x=""347.5"" fill=""green""/></svg>","83","stim_present","training","green","left","html-keyboard-response","3","51371","0.0-2.0-0.0-1.0","1uuq","true"
"783.6200000019744","<svg height=""711"" width=""1390""><rect height=""71.1"" width=""71.1""y=""319.95""x=""1042.5"" fill=""green""/></svg>","83","stim_present","training","green","right","html-keyboard-response","5","52660","0.0-2.0-0.0-1.1","1uuq","true"
"596.0549999726936","<svg height=""711"" width=""1390""><rect height=""71.1"" width=""71.1""y=""319.95""x=""659.45"" fill=""green""/></svg>","83","stim_present","training","green","middle","html-keyboard-response","7","53764","0.0-2.0-0.0-1.2","1uuq","true"
"393.67500005755574","<svg height=""711"" width=""1390""><rect height=""71.1"" width=""71.1""y=""319.95""x=""347.5"" fill=""red""/></svg>","76","stim_present","training","red","left","html-keyboard-response","9","54663","0.0-2.0-0.0-1.3","1uuq","true"
"423.6400000518188","<svg height=""711"" width=""1390""><rect height=""71.1"" width=""71.1""y=""319.95""x=""1042.5"" fill=""red""/></svg>","76","stim_present","training","red","right","html-keyboard-response","11","55592","0.0-2.0-0.0-1.4","1uuq","true"
"431.6049999324605","<svg height=""711"" width=""1390""><rect height=""71.1"" width=""71.1""y=""319.95""x=""659.45"" fill=""red""/></svg>","76","stim_present","training","red","middle","html-keyboard-response","13","56527","0.0-2.0-0.0-1.5","1uuq","true"
"427.90000000968575","<svg height=""711"" width=""1390""><rect height=""71.1"" width=""71.1""y=""319.95""x=""1042.5"" fill=""red""/></svg>","76","stim_present","training","red","right","html-keyboard-response","15","57458","0.0-2.0-0.0-1.6","1uuq","true"
"531.6449999809265","<svg height=""711"" width=""1390""><rect height=""71.1"" width=""71.1""y=""319.95""x=""1042.5"" fill=""green""/></svg>","83","stim_present","training","green","right","html-keyboard-response","17","58498","0.0-2.0-0.0-1.7","1uuq","true"
"439.97499998658895","<svg height=""711"" width=""1390""><rect height=""71.1"" width=""71.1""y=""319.95""x=""347.5"" fill=""green""/></svg>","83","stim_present","training","green","left","html-keyboard-response","19","59450","0.0-2.0-0.0-1.8","1uuq","true"
"424.1299999412149","<svg height=""711"" width=""1390""><rect height=""71.1"" width=""71.1""y=""319.95""x=""659.45"" fill=""green""/></svg>","83","stim_present","training","green","middle","html-keyboard-response","21","60386","0.0-2.0-0.0-1.9","1uuq","true"
"606.084999977611","<svg height=""711"" width=""1390""><rect height=""71.1"" width=""71.1""y=""319.95""x=""659.45"" fill=""red""/></svg>","76","stim_present","training","red","middle","html-keyboard-response","23","61496","0.0-2.0-0.0-1.10","1uuq","true"
"574.529999983497","<svg height=""711"" width=""1390""><rect height=""71.1"" width=""71.1""y=""319.95""x=""347.5"" fill=""red""/></svg>","76","stim_present","training","red","left","html-keyboard-response","25","62574","0.0-2.0-0.0-1.11","1uuq","true"
"404.4099999591708","<svg height=""711"" width=""1390""><rect height=""71.1"" width=""71.1""y=""319.95""x=""347.5"" fill=""green""/></svg>","83","stim_present","test","green","left","html-keyboard-response","28","76751","0.0-3.0-0.0-1.0","1uuq","true"
"412.9650000249967","<svg height=""711"" width=""1390""><rect height=""71.1"" width=""71.1""y=""319.95""x=""659.45"" fill=""green""/></svg>","83","stim_present","test","green","middle","html-keyboard-response","30","77669","0.0-3.0-0.0-1.1","1uuq","true"
"378.4649999579415","<svg height=""711"" width=""1390""><rect height=""71.1"" width=""71.1""y=""319.95""x=""1042.5"" fill=""green""/></svg>","83","stim_present","test","green","right","html-keyboard-response","32","78556","0.0-3.0-0.0-1.2","1uuq","true"
"477.48000000137836","<svg height=""711"" width=""1390""><rect height=""71.1"" width=""71.1""y=""319.95""x=""347.5"" fill=""red""/></svg>","76","stim_present","test","red","left","html-keyboard-response","34","79538","0.0-3.0-0.0-1.3","1uuq","true"
"386.7750000208616","<svg height=""711"" width=""1390""><rect height=""71.1"" width=""71.1""y=""319.95""x=""1042.5"" fill=""red""/></svg>","76","stim_present","test","red","right","html-keyboard-response","36","80438","0.0-3.0-0.0-1.4","1uuq","true"
"351.51500010397285","<svg height=""711"" width=""1390""><rect height=""71.1"" width=""71.1""y=""319.95""x=""659.45"" fill=""red""/></svg>","76","stim_present","test","red","middle","html-keyboard-response","38","81297","0.0-3.0-0.0-1.5","1uuq","true"
"392.5250000320375","<svg height=""711"" width=""1390""><rect height=""71.1"" width=""71.1""y=""319.95""x=""659.45"" fill=""red""/></svg>","76","stim_present","test","red","middle","html-keyboard-response","40","82194","0.0-3.0-0.0-1.6","1uuq","true"
"485.14999996405095","<svg height=""711"" width=""1390""><rect height=""71.1"" width=""71.1""y=""319.95""x=""659.45"" fill=""green""/></svg>","83","stim_present","test","green","middle","html-keyboard-response","42","83183","0.0-3.0-0.0-1.7","1uuq","true"
"441.72500004060566","<svg height=""711"" width=""1390""><rect height=""71.1"" width=""71.1""y=""319.95""x=""347.5"" fill=""red""/></svg>","76","stim_present","test","red","left","html-keyboard-response","44","84132","0.0-3.0-0.0-1.8","1uuq","true"
"490.7899999525398","<svg height=""711"" width=""1390""><rect height=""71.1"" width=""71.1""y=""319.95""x=""1042.5"" fill=""green""/></svg>","83","stim_present","test","green","right","html-keyboard-response","46","85127","0.0-3.0-0.0-1.9","1uuq","true"
"536.614999989979","<svg height=""711"" width=""1390""><rect height=""71.1"" width=""71.1""y=""319.95""x=""1042.5"" fill=""red""/></svg>","83","stim_present","test","red","right","html-keyboard-response","48","86173","0.0-3.0-0.0-1.10","1uuq","false"
"552.4849999928847","<svg height=""711"" width=""1390""><rect height=""71.1"" width=""71.1""y=""319.95""x=""347.5"" fill=""green""/></svg>","76","stim_present","test","green","left","html-keyboard-response","50","87233","0.0-3.0-0.0-1.11","1uuq","false"
"764.0050000045449","<svg height=""711"" width=""1390""><rect height=""71.1"" width=""71.1""y=""319.95""x=""659.45"" fill=""red""/></svg>","83","stim_present","test","red","middle","html-keyboard-response","52","88506","0.0-3.0-0.0-1.12","1uuq","false"
"630.254999967292","<svg height=""711"" width=""1390""><rect height=""71.1"" width=""71.1""y=""319.95""x=""347.5"" fill=""red""/></svg>","76","stim_present","test","red","left","html-keyboard-response","54","89644","0.0-3.0-0.0-1.13","1uuq","true"
"479.67999998945743","<svg height=""711"" width=""1390""><rect height=""71.1"" width=""71.1""y=""319.95""x=""659.45"" fill=""green""/></svg>","83","stim_present","test","green","middle","html-keyboard-response","56","90637","0.0-3.0-0.0-1.14","1uuq","true"
"681.6049999324605","<svg height=""711"" width=""1390""><rect height=""71.1"" width=""71.1""y=""319.95""x=""1042.5"" fill=""red""/></svg>","76","stim_present","test","red","right","html-keyboard-response","58","91821","0.0-3.0-0.0-1.15","1uuq","true"
"461.0800000373274","<svg height=""711"" width=""1390""><rect height=""71.1"" width=""71.1""y=""319.95""x=""347.5"" fill=""green""/></svg>","83","stim_present","test","green","left","html-keyboard-response","60","92789","0.0-3.0-0.0-1.16","1uuq","true"
"492.23500001244247","<svg height=""711"" width=""1390""><rect height=""71.1"" width=""71.1""y=""319.95""x=""1042.5"" fill=""green""/></svg>","83","stim_present","test","green","right","html-keyboard-response","62","93784","0.0-3.0-0.0-1.17","1uuq","true"
"437.90500005707145","<svg height=""711"" width=""1390""><rect height=""71.1"" width=""71.1""y=""319.95""x=""1042.5"" fill=""green""/></svg>","83","stim_present","test","green","right","html-keyboard-response","64","94728","0.0-3.0-0.0-1.18","1uuq","true"
"431.89499992877245","<svg height=""711"" width=""1390""><rect height=""71.1"" width=""71.1""y=""319.95""x=""659.45"" fill=""green""/></svg>","83","stim_present","test","green","middle","html-keyboard-response","66","95663","0.0-3.0-0.0-1.19","1uuq","true"
"403.31500000320375","<svg height=""711"" width=""1390""><rect height=""71.1"" width=""71.1""y=""319.95""x=""347.5"" fill=""green""/></svg>","83","stim_present","test","green","left","html-keyboard-response","68","96576","0.0-3.0-0.0-1.20","1uuq","true"
"396.9049999723211","<svg height=""711"" width=""1390""><rect height=""71.1"" width=""71.1""y=""319.95""x=""659.45"" fill=""red""/></svg>","76","stim_present","test","red","middle","html-keyboard-response","70","97484","0.0-3.0-0.0-1.21","1uuq","true"
"389.33000003453344","<svg height=""711"" width=""1390""><rect height=""71.1"" width=""71.1""y=""319.95""x=""347.5"" fill=""red""/></svg>","76","stim_present","test","red","left","html-keyboard-response","72","98381","0.0-3.0-0.0-1.22","1uuq","true"
"400.03999997861683","<svg height=""711"" width=""1390""><rect height=""71.1"" width=""71.1""y=""319.95""x=""1042.5"" fill=""red""/></svg>","76","stim_present","test","red","right","html-keyboard-response","74","99286","0.0-3.0-0.0-1.23","1uuq","true"
"629.7350000822917","<svg height=""711"" width=""1390""><rect height=""71.1"" width=""71.1""y=""319.95""x=""659.45"" fill=""red""/></svg>","76","stim_present","test","red","middle","html-keyboard-response","76","100426","0.0-3.0-0.0-1.24","1uuq","true"
"422.8899999288842","<svg height=""711"" width=""1390""><rect height=""71.1"" width=""71.1""y=""319.95""x=""347.5"" fill=""red""/></svg>","76","stim_present","test","red","left","html-keyboard-response","78","101358","0.0-3.0-0.0-1.25","1uuq","true"
"491.2999999942258","<svg height=""711"" width=""1390""><rect height=""71.1"" width=""71.1""y=""319.95""x=""659.45"" fill=""green""/></svg>","83","stim_present","test","green","middle","html-keyboard-response","80","102357","0.0-3.0-0.0-1.26","1uuq","true"
"421.195000060834","<svg height=""711"" width=""1390""><rect height=""71.1"" width=""71.1""y=""319.95""x=""1042.5"" fill=""green""/></svg>","83","stim_present","test","green","right","html-keyboard-response","82","103290","0.0-3.0-0.0-1.27","1uuq","true"
"397.48500008136034","<svg height=""711"" width=""1390""><rect height=""71.1"" width=""71.1""y=""319.95""x=""1042.5"" fill=""red""/></svg>","76","stim_present","test","red","right","html-keyboard-response","84","104196","0.0-3.0-0.0-1.28","1uuq","true"
"445.9349999669939","<svg height=""711"" width=""1390""><rect height=""71.1"" width=""71.1""y=""319.95""x=""347.5"" fill=""green""/></svg>","76","stim_present","test","green","left","html-keyboard-response","86","105151","0.0-3.0-0.0-1.29","1uuq","false"
"532.7400000533089","<svg height=""711"" width=""1390""><rect height=""71.1"" width=""71.1""y=""319.95""x=""659.45"" fill=""red""/></svg>","76","stim_present","test","red","middle","html-keyboard-response","88","106188","0.0-3.0-0.0-1.30","1uuq","true"
"446.55500003136694","<svg height=""711"" width=""1390""><rect height=""71.1"" width=""71.1""y=""319.95""x=""347.5"" fill=""red""/></svg>","76","stim_present","test","red","left","html-keyboard-response","90","107142","0.0-3.0-0.0-1.31","1uuq","true"
"505.20499993581325","<svg height=""711"" width=""1390""><rect height=""71.1"" width=""71.1""y=""319.95""x=""347.5"" fill=""green""/></svg>","83","stim_present","test","green","left","html-keyboard-response","92","108155","0.0-3.0-0.0-1.32","1uuq","true"
"494.01500006206334","<svg height=""711"" width=""1390""><rect height=""71.1"" width=""71.1""y=""319.95""x=""1042.5"" fill=""red""/></svg>","76","stim_present","test","red","right","html-keyboard-response","94","109152","0.0-3.0-0.0-1.33","1uuq","true"
"487.9750000545755","<svg height=""711"" width=""1390""><rect height=""71.1"" width=""71.1""y=""319.95""x=""659.45"" fill=""green""/></svg>","83","stim_present","test","green","middle","html-keyboard-response","96","110142","0.0-3.0-0.0-1.34","1uuq","true"
"506.8999999202788","<svg height=""711"" width=""1390""><rect height=""71.1"" width=""71.1""y=""319.95""x=""1042.5"" fill=""green""/></svg>","83","stim_present","test","green","right","html-keyboard-response","98","111156","0.0-3.0-0.0-1.35","1uuq","true"
"827.8150000842288","<svg height=""711"" width=""1390""><rect height=""71.1"" width=""71.1""y=""319.95""x=""1042.5"" fill=""green""/></svg>","83","stim_present","test","green","right","html-keyboard-response","101","119066","0.0-3.0-0.1-1.36","1uuq","true"
"422.49999998603016","<svg height=""711"" width=""1390""><rect height=""71.1"" width=""71.1""y=""319.95""x=""659.45"" fill=""green""/></svg>","83","stim_present","test","green","middle","html-keyboard-response","103","119996","0.0-3.0-0.1-1.37","1uuq","true"
"339.0199999557808","<svg height=""711"" width=""1390""><rect height=""71.1"" width=""71.1""y=""319.95""x=""1042.5"" fill=""red""/></svg>","76","stim_present","test","red","right","html-keyboard-response","105","120842","0.0-3.0-0.1-1.38","1uuq","true"
"361.97500000707805","<svg height=""711"" width=""1390""><rect height=""71.1"" width=""71.1""y=""319.95""x=""659.45"" fill=""red""/></svg>","76","stim_present","test","red","middle","html-keyboard-response","107","121709","0.0-3.0-0.1-1.39","1uuq","true"
"421.8150000087917","<svg height=""711"" width=""1390""><rect height=""71.1"" width=""71.1""y=""319.95""x=""347.5"" fill=""green""/></svg>","83","stim_present","test","green","left","html-keyboard-response","109","122634","0.0-3.0-0.1-1.40","1uuq","true"
"481.0350000625476","<svg height=""711"" width=""1390""><rect height=""71.1"" width=""71.1""y=""319.95""x=""347.5"" fill=""red""/></svg>","76","stim_present","test","red","left","html-keyboard-response","111","123619","0.0-3.0-0.1-1.41","1uuq","true"
"459.21500003896654","<svg height=""711"" width=""1390""><rect height=""71.1"" width=""71.1""y=""319.95""x=""1042.5"" fill=""green""/></svg>","83","stim_present","test","green","right","html-keyboard-response","113","124580","0.0-3.0-0.1-1.42","1uuq","true"
"426.08499992638826","<svg height=""711"" width=""1390""><rect height=""71.1"" width=""71.1""y=""319.95""x=""1042.5"" fill=""red""/></svg>","76","stim_present","test","red","right","html-keyboard-response","115","125507","0.0-3.0-0.1-1.43","1uuq","true"
"792.0249999733642","<svg height=""711"" width=""1390""><rect height=""71.1"" width=""71.1""y=""319.95""x=""659.45"" fill=""green""/></svg>","83","stim_present","test","green","middle","html-keyboard-response","117","126809","0.0-3.0-0.1-1.44","1uuq","true"
"562.9249999765307","<svg height=""711"" width=""1390""><rect height=""71.1"" width=""71.1""y=""319.95""x=""347.5"" fill=""red""/></svg>","76","stim_present","test","red","left","html-keyboard-response","119","127879","0.0-3.0-0.1-1.45","1uuq","true"
"668.3499999344349","<svg height=""711"" width=""1390""><rect height=""71.1"" width=""71.1""y=""319.95""x=""347.5"" fill=""green""/></svg>","83","stim_present","test","green","left","html-keyboard-response","121","129053","0.0-3.0-0.1-1.46","1uuq","true"
"488.58999996446073","<svg height=""711"" width=""1390""><rect height=""71.1"" width=""71.1""y=""319.95""x=""659.45"" fill=""red""/></svg>","76","stim_present","test","red","middle","html-keyboard-response","123","130042","0.0-3.0-0.1-1.47","1uuq","true"
"454.32500005699694","<svg height=""711"" width=""1390""><rect height=""71.1"" width=""71.1""y=""319.95""x=""659.45"" fill=""red""/></svg>","76","stim_present","test","red","middle","html-keyboard-response","125","131003","0.0-3.0-0.1-1.48","1uuq","true"
"453.20500002708286","<svg height=""711"" width=""1390""><rect height=""71.1"" width=""71.1""y=""319.95""x=""347.5"" fill=""red""/></svg>","76","stim_present","test","red","left","html-keyboard-response","127","131960","0.0-3.0-0.1-1.49","1uuq","true"
"565.569999977015","<svg height=""711"" width=""1390""><rect height=""71.1"" width=""71.1""y=""319.95""x=""1042.5"" fill=""green""/></svg>","83","stim_present","test","green","right","html-keyboard-response","129","133031","0.0-3.0-0.1-1.50","1uuq","true"
"745.3249999089167","<svg height=""711"" width=""1390""><rect height=""71.1"" width=""71.1""y=""319.95""x=""659.45"" fill=""green""/></svg>","83","stim_present","test","green","middle","html-keyboard-response","131","134278","0.0-3.0-0.1-1.51","1uuq","true"
"376.1299999896437","<svg height=""711"" width=""1390""><rect height=""71.1"" width=""71.1""y=""319.95""x=""1042.5"" fill=""red""/></svg>","76","stim_present","test","red","right","html-keyboard-response","133","135157","0.0-3.0-0.1-1.52","1uuq","true"
"335.1600000169128","<svg height=""711"" width=""1390""><rect height=""71.1"" width=""71.1""y=""319.95""x=""347.5"" fill=""green""/></svg>","83","stim_present","test","green","left","html-keyboard-response","135","135998","0.0-3.0-0.1-1.53","1uuq","true"
"420.4599999357015","<svg height=""711"" width=""1390""><rect height=""71.1"" width=""71.1""y=""319.95""x=""659.45"" fill=""red""/></svg>","76","stim_present","test","red","middle","html-keyboard-response","137","136923","0.0-3.0-0.1-1.54","1uuq","true"
"324.74499999079853","<svg height=""711"" width=""1390""><rect height=""71.1"" width=""71.1""y=""319.95""x=""347.5"" fill=""green""/></svg>","83","stim_present","test","green","left","html-keyboard-response","139","137749","0.0-3.0-0.1-1.55","1uuq","true"
"408.0100000137463","<svg height=""711"" width=""1390""><rect height=""71.1"" width=""71.1""y=""319.95""x=""1042.5"" fill=""red""/></svg>","76","stim_present","test","red","right","html-keyboard-response","141","138660","0.0-3.0-0.1-1.56","1uuq","true"
"443.8150000059977","<svg height=""711"" width=""1390""><rect height=""71.1"" width=""71.1""y=""319.95""x=""659.45"" fill=""green""/></svg>","83","stim_present","test","green","middle","html-keyboard-response","143","139608","0.0-3.0-0.1-1.57","1uuq","true"
"438.6149999918416","<svg height=""711"" width=""1390""><rect height=""71.1"" width=""71.1""y=""319.95""x=""1042.5"" fill=""green""/></svg>","83","stim_present","test","green","right","html-keyboard-response","145","140548","0.0-3.0-0.1-1.58","1uuq","true"
"420.7049999386072","<svg height=""711"" width=""1390""><rect height=""71.1"" width=""71.1""y=""319.95""x=""347.5"" fill=""red""/></svg>","76","stim_present","test","red","left","html-keyboard-response","147","141473","0.0-3.0-0.1-1.59","1uuq","true"
"749.3699999758974","<svg height=""711"" width=""1390""><rect height=""71.1"" width=""71.1""y=""319.95""x=""347.5"" fill=""green""/></svg>","83","stim_present","test","green","left","html-keyboard-response","149","142728","0.0-3.0-0.1-1.60","1uuq","true"
"560.6900000711903","<svg height=""711"" width=""1390""><rect height=""71.1"" width=""71.1""y=""319.95""x=""659.45"" fill=""red""/></svg>","76","stim_present","test","red","middle","html-keyboard-response","151","143795","0.0-3.0-0.1-1.61","1uuq","true"
"622.6399999577552","<svg height=""711"" width=""1390""><rect height=""71.1"" width=""71.1""y=""319.95""x=""659.45"" fill=""green""/></svg>","83","stim_present","test","green","middle","html-keyboard-response","153","144926","0.0-3.0-0.1-1.62","1uuq","true"
"500.72499993257225","<svg height=""711"" width=""1390""><rect height=""71.1"" width=""71.1""y=""319.95""x=""1042.5"" fill=""red""/></svg>","76","stim_present","test","red","right","html-keyboard-response","155","145928","0.0-3.0-0.1-1.63","1uuq","true"
"407.84500003792346","<svg height=""711"" width=""1390""><rect height=""71.1"" width=""71.1""y=""319.95""x=""347.5"" fill=""red""/></svg>","76","stim_present","test","red","left","html-keyboard-response","157","146842","0.0-3.0-0.1-1.64","1uuq","true"
"533.6349999997765","<svg height=""711"" width=""1390""><rect height=""71.1"" width=""71.1""y=""319.95""x=""1042.5"" fill=""green""/></svg>","83","stim_present","test","green","right","html-keyboard-response","159","147877","0.0-3.0-0.1-1.65","1uuq","true"
"614.8650000104681","<svg height=""711"" width=""1390""><rect height=""71.1"" width=""71.1""y=""319.95""x=""347.5"" fill=""green""/></svg>","83","stim_present","test","green","left","html-keyboard-response","161","148995","0.0-3.0-0.1-1.66","1uuq","true"
"413.2999998982996","<svg height=""711"" width=""1390""><rect height=""71.1"" width=""71.1""y=""319.95""x=""1042.5"" fill=""red""/></svg>","76","stim_present","test","red","right","html-keyboard-response","163","149910","0.0-3.0-0.1-1.67","1uuq","true"
"419.2850000690669","<svg height=""711"" width=""1390""><rect height=""71.1"" width=""71.1""y=""319.95""x=""347.5"" fill=""red""/></svg>","76","stim_present","test","red","left","html-keyboard-response","165","150836","0.0-3.0-0.1-1.68","1uuq","true"
"432.5250000692904","<svg height=""711"" width=""1390""><rect height=""71.1"" width=""71.1""y=""319.95""x=""1042.5"" fill=""green""/></svg>","83","stim_present","test","green","right","html-keyboard-response","167","151775","0.0-3.0-0.1-1.69","1uuq","true"
"583.8399999774992","<svg height=""711"" width=""1390""><rect height=""71.1"" width=""71.1""y=""319.95""x=""659.45"" fill=""green""/></svg>","83","stim_present","test","green","middle","html-keyboard-response","169","152861","0.0-3.0-0.1-1.70","1uuq","true"
"512.0999999344349","<svg height=""711"" width=""1390""><rect height=""71.1"" width=""71.1""y=""319.95""x=""659.45"" fill=""red""/></svg>","76","stim_present","test","red","middle","html-keyboard-response","171","153875","0.0-3.0-0.1-1.71","1uuq","true"
"410.6149999424815","<svg height=""711"" width=""1390""><rect height=""71.1"" width=""71.1""y=""319.95""x=""659.45"" fill=""green""/></svg>","83","stim_present","test","green","middle","html-keyboard-response","174","174476","0.0-3.0-0.2-1.72","1uuq","true"
"397.2500000381842","<svg height=""711"" width=""1390""><rect height=""71.1"" width=""71.1""y=""319.95""x=""347.5"" fill=""red""/></svg>","76","stim_present","test","red","left","html-keyboard-response","176","175375","0.0-3.0-0.2-1.73","1uuq","true"
"753.315000096336","<svg height=""711"" width=""1390""><rect height=""71.1"" width=""71.1""y=""319.95""x=""659.45"" fill=""red""/></svg>","83","stim_present","test","red","middle","html-keyboard-response","178","176636","0.0-3.0-0.2-1.74","1uuq","false"
"451.8950000638142","<svg height=""711"" width=""1390""><rect height=""71.1"" width=""71.1""y=""319.95""x=""1042.5"" fill=""red""/></svg>","83","stim_present","test","red","right","html-keyboard-response","180","177590","0.0-3.0-0.2-1.75","1uuq","false"
"732.5300000375137","<svg height=""711"" width=""1390""><rect height=""71.1"" width=""71.1""y=""319.95""x=""347.5"" fill=""green""/></svg>","83","stim_present","test","green","left","html-keyboard-response","182","178830","0.0-3.0-0.2-1.76","1uuq","true"
"704.4049999676645","<svg height=""711"" width=""1390""><rect height=""71.1"" width=""71.1""y=""319.95""x=""1042.5"" fill=""green""/></svg>","83","stim_present","test","green","right","html-keyboard-response","184","180039","0.0-3.0-0.2-1.77","1uuq","true"
"399.7949999757111","<svg height=""711"" width=""1390""><rect height=""71.1"" width=""71.1""y=""319.95""x=""347.5"" fill=""red""/></svg>","76","stim_present","test","red","left","html-keyboard-response","186","180941","0.0-3.0-0.2-1.78","1uuq","true"
"468.3400000212714","<svg height=""711"" width=""1390""><rect height=""71.1"" width=""71.1""y=""319.95""x=""1042.5"" fill=""red""/></svg>","76","stim_present","test","red","right","html-keyboard-response","188","181911","0.0-3.0-0.2-1.79","1uuq","true"
"547.8850000072271","<svg height=""711"" width=""1390""><rect height=""71.1"" width=""71.1""y=""319.95""x=""1042.5"" fill=""green""/></svg>","83","stim_present","test","green","right","html-keyboard-response","190","182963","0.0-3.0-0.2-1.80","1uuq","true"
"501.04999996256083","<svg height=""711"" width=""1390""><rect height=""71.1"" width=""71.1""y=""319.95""x=""659.45"" fill=""green""/></svg>","83","stim_present","test","green","middle","html-keyboard-response","192","183968","0.0-3.0-0.2-1.81","1uuq","true"
"412.55999996792525","<svg height=""711"" width=""1390""><rect height=""71.1"" width=""71.1""y=""319.95""x=""659.45"" fill=""red""/></svg>","76","stim_present","test","red","middle","html-keyboard-response","194","184890","0.0-3.0-0.2-1.82","1uuq","true"
"505.03500003833324","<svg height=""711"" width=""1390""><rect height=""71.1"" width=""71.1""y=""319.95""x=""347.5"" fill=""green""/></svg>","83","stim_present","test","green","left","html-keyboard-response","196","185901","0.0-3.0-0.2-1.83","1uuq","true"
"596.1499999975786","<svg height=""711"" width=""1390""><rect height=""71.1"" width=""71.1""y=""319.95""x=""347.5"" fill=""red""/></svg>","76","stim_present","test","red","left","html-keyboard-response","198","187003","0.0-3.0-0.2-1.84","1uuq","true"
"446.8049999559298","<svg height=""711"" width=""1390""><rect height=""71.1"" width=""71.1""y=""319.95""x=""1042.5"" fill=""green""/></svg>","83","stim_present","test","green","right","html-keyboard-response","200","187957","0.0-3.0-0.2-1.85","1uuq","true"
"440.6500000040978","<svg height=""711"" width=""1390""><rect height=""71.1"" width=""71.1""y=""319.95""x=""1042.5"" fill=""red""/></svg>","83","stim_present","test","red","right","html-keyboard-response","202","188906","0.0-3.0-0.2-1.86","1uuq","false"
"433.20999993011355","<svg height=""711"" width=""1390""><rect height=""71.1"" width=""71.1""y=""319.95""x=""659.45"" fill=""green""/></svg>","83","stim_present","test","green","middle","html-keyboard-response","204","189843","0.0-3.0-0.2-1.87","1uuq","true"
"471.16499999538064","<svg height=""711"" width=""1390""><rect height=""71.1"" width=""71.1""y=""319.95""x=""347.5"" fill=""green""/></svg>","83","stim_present","test","green","left","html-keyboard-response","206","190816","0.0-3.0-0.2-1.88","1uuq","true"
"408.69000006932765","<svg height=""711"" width=""1390""><rect height=""71.1"" width=""71.1""y=""319.95""x=""659.45"" fill=""red""/></svg>","76","stim_present","test","red","middle","html-keyboard-response","208","191728","0.0-3.0-0.2-1.89","1uuq","true"
"429.9800000153482","<svg height=""711"" width=""1390""><rect height=""71.1"" width=""71.1""y=""319.95""x=""347.5"" fill=""red""/></svg>","76","stim_present","test","red","left","html-keyboard-response","210","192661","0.0-3.0-0.2-1.90","1uuq","true"
"426.9250000361353","<svg height=""711"" width=""1390""><rect height=""71.1"" width=""71.1""y=""319.95""x=""1042.5"" fill=""green""/></svg>","83","stim_present","test","green","right","html-keyboard-response","212","193590","0.0-3.0-0.2-1.91","1uuq","true"
"410.94500001054257","<svg height=""711"" width=""1390""><rect height=""71.1"" width=""71.1""y=""319.95""x=""659.45"" fill=""red""/></svg>","76","stim_present","test","red","middle","html-keyboard-response","214","194504","0.0-3.0-0.2-1.92","1uuq","true"
"389.409999945201","<svg height=""711"" width=""1390""><rect height=""71.1"" width=""71.1""y=""319.95""x=""1042.5"" fill=""red""/></svg>","76","stim_present","test","red","right","html-keyboard-response","216","195396","0.0-3.0-0.2-1.93","1uuq","true"
"414.2549999523908","<svg height=""711"" width=""1390""><rect height=""71.1"" width=""71.1""y=""319.95""x=""347.5"" fill=""green""/></svg>","83","stim_present","test","green","left","html-keyboard-response","218","196312","0.0-3.0-0.2-1.94","1uuq","true"
"481.9399999687448","<svg height=""711"" width=""1390""><rect height=""71.1"" width=""71.1""y=""319.95""x=""659.45"" fill=""green""/></svg>","83","stim_present","test","green","middle","html-keyboard-response","220","197296","0.0-3.0-0.2-1.95","1uuq","true"
"431.25000002328306","<svg height=""711"" width=""1390""><rect height=""71.1"" width=""71.1""y=""319.95""x=""659.45"" fill=""green""/></svg>","83","stim_present","test","green","middle","html-keyboard-response","222","198234","0.0-3.0-0.2-1.96","1uuq","true"
"427.8149999445304","<svg height=""711"" width=""1390""><rect height=""71.1"" width=""71.1""y=""319.95""x=""347.5"" fill=""green""/></svg>","83","stim_present","test","green","left","html-keyboard-response","224","199168","0.0-3.0-0.2-1.97","1uuq","true"
"411.95500001776963","<svg height=""711"" width=""1390""><rect height=""71.1"" width=""71.1""y=""319.95""x=""1042.5"" fill=""red""/></svg>","76","stim_present","test","red","right","html-keyboard-response","226","200088","0.0-3.0-0.2-1.98","1uuq","true"
"396.00500010419637","<svg height=""711"" width=""1390""><rect height=""71.1"" width=""71.1""y=""319.95""x=""659.45"" fill=""red""/></svg>","76","stim_present","test","red","middle","html-keyboard-response","228","200986","0.0-3.0-0.2-1.99","1uuq","true"
"635.4450000217184","<svg height=""711"" width=""1390""><rect height=""71.1"" width=""71.1""y=""319.95""x=""347.5"" fill=""red""/></svg>","76","stim_present","test","red","left","html-keyboard-response","230","202129","0.0-3.0-0.2-1.100","1uuq","true"
"478.1950000906363","<svg height=""711"" width=""1390""><rect height=""71.1"" width=""71.1""y=""319.95""x=""1042.5"" fill=""green""/></svg>","83","stim_present","test","green","right","html-keyboard-response","232","203111","0.0-3.0-0.2-1.101","1uuq","true"
"504.3399999849498","<svg height=""711"" width=""1390""><rect height=""71.1"" width=""71.1""y=""319.95""x=""659.45"" fill=""red""/></svg>","76","stim_present","test","red","middle","html-keyboard-response","234","204121","0.0-3.0-0.2-1.102","1uuq","true"
"566.9400000479072","<svg height=""711"" width=""1390""><rect height=""71.1"" width=""71.1""y=""319.95""x=""659.45"" fill=""green""/></svg>","83","stim_present","test","green","middle","html-keyboard-response","236","205194","0.0-3.0-0.2-1.103","1uuq","true"
"374.5249999919906","<svg height=""711"" width=""1390""><rect height=""71.1"" width=""71.1""y=""319.95""x=""1042.5"" fill=""red""/></svg>","76","stim_present","test","red","right","html-keyboard-response","238","206073","0.0-3.0-0.2-1.104","1uuq","true"
"548.0549999047071","<svg height=""711"" width=""1390""><rect height=""71.1"" width=""71.1""y=""319.95""x=""1042.5"" fill=""green""/></svg>","83","stim_present","test","green","right","html-keyboard-response","240","207129","0.0-3.0-0.2-1.105","1uuq","true"
"358.1100000301376","<svg height=""711"" width=""1390""><rect height=""71.1"" width=""71.1""y=""319.95""x=""347.5"" fill=""red""/></svg>","76","stim_present","test","red","left","html-keyboard-response","242","207991","0.0-3.0-0.2-1.106","1uuq","true"
"667.1550000319257","<svg height=""711"" width=""1390""><rect height=""71.1"" width=""71.1""y=""319.95""x=""347.5"" fill=""green""/></svg>","83","stim_present","test","green","left","html-keyboard-response","244","209163","0.0-3.0-0.2-1.107","1uuq","true"
"460.2500000037253","<svg height=""711"" width=""1390""><rect height=""71.1"" width=""71.1""y=""319.95""x=""347.5"" fill=""green""/></svg>","83","stim_present","test","green","left","html-keyboard-response","247","226022","0.0-3.0-0.3-1.108","1uuq","true"
"379.7049999702722","<svg height=""711"" width=""1390""><rect height=""71.1"" width=""71.1""y=""319.95""x=""1042.5"" fill=""green""/></svg>","83","stim_present","test","green","right","html-keyboard-response","249","226911","0.0-3.0-0.3-1.109","1uuq","true"
"487.3799999477342","<svg height=""711"" width=""1390""><rect height=""71.1"" width=""71.1""y=""319.95""x=""659.45"" fill=""green""/></svg>","83","stim_present","test","green","middle","html-keyboard-response","251","227912","0.0-3.0-0.3-1.110","1uuq","true"
"402.85499999299645","<svg height=""711"" width=""1390""><rect height=""71.1"" width=""71.1""y=""319.95""x=""659.45"" fill=""red""/></svg>","76","stim_present","test","red","middle","html-keyboard-response","253","228821","0.0-3.0-0.3-1.111","1uuq","true"
"449.6150000486523","<svg height=""711"" width=""1390""><rect height=""71.1"" width=""71.1""y=""319.95""x=""347.5"" fill=""red""/></svg>","76","stim_present","test","red","left","html-keyboard-response","255","229777","0.0-3.0-0.3-1.112","1uuq","true"
"335.04499995615333","<svg height=""711"" width=""1390""><rect height=""71.1"" width=""71.1""y=""319.95""x=""1042.5"" fill=""red""/></svg>","76","stim_present","test","red","right","html-keyboard-response","257","230620","0.0-3.0-0.3-1.113","1uuq","true"
"363.87500003911555","<svg height=""711"" width=""1390""><rect height=""71.1"" width=""71.1""y=""319.95""x=""347.5"" fill=""green""/></svg>","83","stim_present","test","green","left","html-keyboard-response","259","231494","0.0-3.0-0.3-1.114","1uuq","true"
"381.0300000477582","<svg height=""711"" width=""1390""><rect height=""71.1"" width=""71.1""y=""319.95""x=""659.45"" fill=""red""/></svg>","76","stim_present","test","red","middle","html-keyboard-response","261","232381","0.0-3.0-0.3-1.115","1uuq","true"
"413.04500005207956","<svg height=""711"" width=""1390""><rect height=""71.1"" width=""71.1""y=""319.95""x=""347.5"" fill=""red""/></svg>","76","stim_present","test","red","left","html-keyboard-response","263","233297","0.0-3.0-0.3-1.116","1uuq","true"
"427.25499998778105","<svg height=""711"" width=""1390""><rect height=""71.1"" width=""71.1""y=""319.95""x=""659.45"" fill=""green""/></svg>","83","stim_present","test","green","middle","html-keyboard-response","265","234235","0.0-3.0-0.3-1.117","1uuq","true"
"417.03000001143664","<svg height=""711"" width=""1390""><rect height=""71.1"" width=""71.1""y=""319.95""x=""1042.5"" fill=""green""/></svg>","83","stim_present","test","green","right","html-keyboard-response","267","235156","0.0-3.0-0.3-1.118","1uuq","true"
"519.6100000757724","<svg height=""711"" width=""1390""><rect height=""71.1"" width=""71.1""y=""319.95""x=""1042.5"" fill=""red""/></svg>","76","stim_present","test","red","right","html-keyboard-response","269","236184","0.0-3.0-0.3-1.119","1uuq","true"
"510.5099999345839","<svg height=""711"" width=""1390""><rect height=""71.1"" width=""71.1""y=""319.95""x=""1042.5"" fill=""green""/></svg>","83","stim_present","test","green","right","html-keyboard-response","271","237203","0.0-3.0-0.3-1.120","1uuq","true"
"690.7350000692531","<svg height=""711"" width=""1390""><rect height=""71.1"" width=""71.1""y=""319.95""x=""347.5"" fill=""green""/></svg>","83","stim_present","test","green","left","html-keyboard-response","273","238403","0.0-3.0-0.3-1.121","1uuq","true"
"462.4349999940023","<svg height=""711"" width=""1390""><rect height=""71.1"" width=""71.1""y=""319.95""x=""659.45"" fill=""red""/></svg>","76","stim_present","test","red","middle","html-keyboard-response","275","239375","0.0-3.0-0.3-1.122","1uuq","true"
"451.19499997235835","<svg height=""711"" width=""1390""><rect height=""71.1"" width=""71.1""y=""319.95""x=""347.5"" fill=""red""/></svg>","76","stim_present","test","red","left","html-keyboard-response","277","240335","0.0-3.0-0.3-1.123","1uuq","true"
"370.46500004362315","<svg height=""711"" width=""1390""><rect height=""71.1"" width=""71.1""y=""319.95""x=""1042.5"" fill=""red""/></svg>","76","stim_present","test","red","right","html-keyboard-response","279","241210","0.0-3.0-0.3-1.124","1uuq","true"
"400.32500005327165","<svg height=""711"" width=""1390""><rect height=""71.1"" width=""71.1""y=""319.95""x=""659.45"" fill=""green""/></svg>","83","stim_present","test","green","middle","html-keyboard-response","281","242113","0.0-3.0-0.3-1.125","1uuq","true"
"353.4700000891462","<svg height=""711"" width=""1390""><rect height=""71.1"" width=""71.1""y=""319.95""x=""659.45"" fill=""green""/></svg>","83","stim_present","test","green","middle","html-keyboard-response","283","242975","0.0-3.0-0.3-1.126","1uuq","true"
"447.85500003490597","<svg height=""711"" width=""1390""><rect height=""71.1"" width=""71.1""y=""319.95""x=""347.5"" fill=""red""/></svg>","76","stim_present","test","red","left","html-keyboard-response","285","243924","0.0-3.0-0.3-1.127","1uuq","true"
"567.3500000266358","<svg height=""711"" width=""1390""><rect height=""71.1"" width=""71.1""y=""319.95""x=""347.5"" fill=""green""/></svg>","83","stim_present","test","green","left","html-keyboard-response","287","244993","0.0-3.0-0.3-1.128","1uuq","true"
"440.790000022389","<svg height=""711"" width=""1390""><rect height=""71.1"" width=""71.1""y=""319.95""x=""1042.5"" fill=""green""/></svg>","83","stim_present","test","green","right","html-keyboard-response","289","245937","0.0-3.0-0.3-1.129","1uuq","true"
"649.9950001016259","<svg height=""711"" width=""1390""><rect height=""71.1"" width=""71.1""y=""319.95""x=""1042.5"" fill=""red""/></svg>","76","stim_present","test","red","right","html-keyboard-response","291","247094","0.0-3.0-0.3-1.130","1uuq","true"
"389.6549999481067","<svg height=""711"" width=""1390""><rect height=""71.1"" width=""71.1""y=""319.95""x=""659.45"" fill=""red""/></svg>","76","stim_present","test","red","middle","html-keyboard-response","293","247986","0.0-3.0-0.3-1.131","1uuq","true"
"517.0650000218302","<svg height=""711"" width=""1390""><rect height=""71.1"" width=""71.1""y=""319.95""x=""347.5"" fill=""red""/></svg>","76","stim_present","test","red","left","html-keyboard-response","295","249008","0.0-3.0-0.3-1.132","1uuq","true"
"481.25499999150634","<svg height=""711"" width=""1390""><rect height=""71.1"" width=""71.1""y=""319.95""x=""1042.5"" fill=""green""/></svg>","83","stim_present","test","green","right","html-keyboard-response","297","249996","0.0-3.0-0.3-1.133","1uuq","true"
"433.25000000186265","<svg height=""711"" width=""1390""><rect height=""71.1"" width=""71.1""y=""319.95""x=""659.45"" fill=""red""/></svg>","76","stim_present","test","red","middle","html-keyboard-response","299","250933","0.0-3.0-0.3-1.134","1uuq","true"
"586.96499990765","<svg height=""711"" width=""1390""><rect height=""71.1"" width=""71.1""y=""319.95""x=""347.5"" fill=""green""/></svg>","83","stim_present","test","green","left","html-keyboard-response","301","252029","0.0-3.0-0.3-1.135","1uuq","true"
"512.3049999820068","<svg height=""711"" width=""1390""><rect height=""71.1"" width=""71.1""y=""319.95""x=""659.45"" fill=""green""/></svg>","83","stim_present","test","green","middle","html-keyboard-response","303","253044","0.0-3.0-0.3-1.136","1uuq","true"
"300.9949999395758","<svg height=""711"" width=""1390""><rect height=""71.1"" width=""71.1""y=""319.95""x=""1042.5"" fill=""red""/></svg>","76","stim_present","test","red","right","html-keyboard-response","305","253847","0.0-3.0-0.3-1.137","1uuq","true"
"504.8249999526888","<svg height=""711"" width=""1390""><rect height=""71.1"" width=""71.1""y=""319.95""x=""1042.5"" fill=""green""/></svg>","83","stim_present","test","green","right","html-keyboard-response","307","254860","0.0-3.0-0.3-1.138","1uuq","true"
"386.25999994110316","<svg height=""711"" width=""1390""><rect height=""71.1"" width=""71.1""y=""319.95""x=""659.45"" fill=""red""/></svg>","76","stim_present","test","red","middle","html-keyboard-response","309","255749","0.0-3.0-0.3-1.139","1uuq","true"
"1058.0000000772998","<svg height=""711"" width=""1390""><rect height=""71.1"" width=""71.1""y=""319.95""x=""1042.5"" fill=""red""/></svg>","76","stim_present","test","red","right","html-keyboard-response","311","257308","0.0-3.0-0.3-1.140","1uuq","true"
"594.8600000701845","<svg height=""711"" width=""1390""><rect height=""71.1"" width=""71.1""y=""319.95""x=""347.5"" fill=""red""/></svg>","76","stim_present","test","red","left","html-keyboard-response","313","258407","0.0-3.0-0.3-1.141","1uuq","true"
"392.1149999368936","<svg height=""711"" width=""1390""><rect height=""71.1"" width=""71.1""y=""319.95""x=""347.5"" fill=""green""/></svg>","83","stim_present","test","green","left","html-keyboard-response","315","259307","0.0-3.0-0.3-1.142","1uuq","true"
"483.1250000279397","<svg height=""711"" width=""1390""><rect height=""71.1"" width=""71.1""y=""319.95""x=""659.45"" fill=""green""/></svg>","83","stim_present","test","green","middle","html-keyboard-response","317","260299","0.0-3.0-0.3-1.143","1uuq","true"
