"rt","stimulus","key_press","type","part","color","position","trial_type","trial_index","time_elapsed","internal_node_id","subject","accuracy"
"558.2050000011805","<svg height=""672"" width=""1486""><rect height=""67.2"" width=""67.2""y=""302.4""x=""709.4"" fill=""green""/></svg>","83","stim_present","training","green","middle","html-keyboard-response","3","28525","0.0-2.0-0.0-1.0","yn8a","true"
"293.1800000005751","<svg height=""672"" width=""1486""><rect height=""67.2"" width=""67.2""y=""302.4""x=""709.4"" fill=""red""/></svg>","76","stim_present","training","red","middle","html-keyboard-response","5","29336","0.0-2.0-0.0-1.1","yn8a","true"
"353.67499999847496","<svg height=""672"" width=""1486""><rect height=""67.2"" width=""67.2""y=""302.4""x=""371.5"" fill=""green""/></svg>","83","stim_present","training","green","left","html-keyboard-response","7","30203","0.0-2.0-0.0-1.2","yn8a","true"
"343.7199999971199","<svg height=""672"" width=""1486""><rect height=""67.2"" width=""67.2""y=""302.4""x=""1114.5"" fill=""red""/></svg>","76","stim_present","training","red","right","html-keyboard-response","9","31054","0.0-2.0-0.0-1.3","yn8a","true"
"469.08999999868684","<svg height=""672"" width=""1486""><rect height=""67.2"" width=""67.2""y=""302.4""x=""1114.5"" fill=""green""/></svg>","83","stim_present","training","green","right","html-keyboard-response","11","32026","0.0-2.0-0.0-1.4","yn8a","true"
"358.15500000171596","<svg height=""672"" width=""1486""><rect height=""67.2"" width=""67.2""y=""302.4""x=""371.5"" fill=""red""/></svg>","76","stim_present","training","red","left","html-keyboard-response","13","32887","0.0-2.0-0.0-1.5","yn8a","true"
"649.2450000005192","<svg height=""672"" width=""1486""><rect height=""67.2"" width=""67.2""y=""302.4""x=""709.4"" fill=""red""/></svg>","76","stim_present","training","red","middle","html-keyboard-response","15","34049","0.0-2.0-0.0-1.6","yn8a","true"
"417.1100000021397","<svg height=""672"" width=""1486""><rect height=""67.2"" width=""67.2""y=""302.4""x=""371.5"" fill=""red""/></svg>","76","stim_present","training","red","left","html-keyboard-response","17","34968","0.0-2.0-0.0-1.7","yn8a","true"
"397.95500000036554","<svg height=""672"" width=""1486""><rect height=""67.2"" width=""67.2""y=""302.4""x=""371.5"" fill=""green""/></svg>","83","stim_present","training","green","left","html-keyboard-response","19","35868","0.0-2.0-0.0-1.8","yn8a","true"
"379.37999999849126","<svg height=""672"" width=""1486""><rect height=""67.2"" width=""67.2""y=""302.4""x=""1114.5"" fill=""green""/></svg>","83","stim_present","training","green","right","html-keyboard-response","21","36759","0.0-2.0-0.0-1.9","yn8a","true"
"371.3650000063353","<svg height=""672"" width=""1486""><rect height=""67.2"" width=""67.2""y=""302.4""x=""1114.5"" fill=""red""/></svg>","83","stim_present","training","red","right","html-keyboard-response","23","37632","0.0-2.0-0.0-1.10","yn8a","false"
"381.1950000017532","<svg height=""672"" width=""1486""><rect height=""67.2"" width=""67.2""y=""302.4""x=""709.4"" fill=""green""/></svg>","83","stim_present","training","green","middle","html-keyboard-response","25","38516","0.0-2.0-0.0-1.11","yn8a","true"
"410.3850000028615","<svg height=""672"" width=""1486""><rect height=""67.2"" width=""67.2""y=""302.4""x=""371.5"" fill=""green""/></svg>","83","stim_present","test","green","left","html-keyboard-response","28","40007","0.0-3.0-0.0-1.0","yn8a","true"
"360.10499999974854","<svg height=""672"" width=""1486""><rect height=""67.2"" width=""67.2""y=""302.4""x=""709.4"" fill=""green""/></svg>","83","stim_present","test","green","middle","html-keyboard-response","30","40869","0.0-3.0-0.0-1.1","yn8a","true"
"377.7699999991455","<svg height=""672"" width=""1486""><rect height=""67.2"" width=""67.2""y=""302.4""x=""709.4"" fill=""red""/></svg>","76","stim_present","test","red","middle","html-keyboard-response","32","41749","0.0-3.0-0.0-1.2","yn8a","true"
"449.9350000041886","<svg height=""672"" width=""1486""><rect height=""67.2"" width=""67.2""y=""302.4""x=""1114.5"" fill=""green""/></svg>","83","stim_present","test","green","right","html-keyboard-response","34","42702","0.0-3.0-0.0-1.3","yn8a","true"
"350.87499999644933","<svg height=""672"" width=""1486""><rect height=""67.2"" width=""67.2""y=""302.4""x=""371.5"" fill=""red""/></svg>","83","stim_present","test","red","left","html-keyboard-response","36","43556","0.0-3.0-0.0-1.4","yn8a","false"
"468.075000004319","<svg height=""672"" width=""1486""><rect height=""67.2"" width=""67.2""y=""302.4""x=""1114.5"" fill=""red""/></svg>","76","stim_present","test","red","right","html-keyboard-response","38","44526","0.0-3.0-0.0-1.5","yn8a","true"
"436.93500000517815","<svg height=""672"" width=""1486""><rect height=""67.2"" width=""67.2""y=""302.4""x=""371.5"" fill=""green""/></svg>","83","stim_present","test","green","left","html-keyboard-response","40","45465","0.0-3.0-0.0-1.6","yn8a","true"
"444.30499999725726","<svg height=""672"" width=""1486""><rect height=""67.2"" width=""67.2""y=""302.4""x=""709.4"" fill=""red""/></svg>","76","stim_present","test","red","middle","html-keyboard-response","42","46412","0.0-3.0-0.0-1.7","yn8a","true"
"499.1250000020955","<svg height=""672"" width=""1486""><rect height=""67.2"" width=""67.2""y=""302.4""x=""1114.5"" fill=""green""/></svg>","83","stim_present","test","green","right","html-keyboard-response","44","47415","0.0-3.0-0.0-1.8","yn8a","true"
"380.1000000021304","<svg height=""672"" width=""1486""><rect height=""67.2"" width=""67.2""y=""302.4""x=""709.4"" fill=""green""/></svg>","83","stim_present","test","green","middle","html-keyboard-response","46","48303","0.0-3.0-0.0-1.9","yn8a","true"
"342.6850000032573","<svg height=""672"" width=""1486""><rect height=""67.2"" width=""67.2""y=""302.4""x=""1114.5"" fill=""red""/></svg>","76","stim_present","test","red","right","html-keyboard-response","48","49149","0.0-3.0-0.0-1.10","yn8a","true"
"362.9549999968731","<svg height=""672"" width=""1486""><rect height=""67.2"" width=""67.2""y=""302.4""x=""371.5"" fill=""red""/></svg>","76","stim_present","test","red","left","html-keyboard-response","50","50014","0.0-3.0-0.0-1.11","yn8a","true"
"322.95999999769265","<svg height=""672"" width=""1486""><rect height=""67.2"" width=""67.2""y=""302.4""x=""709.4"" fill=""red""/></svg>","76","stim_present","test","red","middle","html-keyboard-response","52","50840","0.0-3.0-0.0-1.12","yn8a","true"
"312.7600000007078","<svg height=""672"" width=""1486""><rect height=""67.2"" width=""67.2""y=""302.4""x=""709.4"" fill=""green""/></svg>","76","stim_present","test","green","middle","html-keyboard-response","54","51659","0.0-3.0-0.0-1.13","yn8a","false"
"401.1899999968591","<svg height=""672"" width=""1486""><rect height=""67.2"" width=""67.2""y=""302.4""x=""371.5"" fill=""red""/></svg>","76","stim_present","test","red","left","html-keyboard-response","56","52562","0.0-3.0-0.0-1.14","yn8a","true"
"322.7900000056252","<svg height=""672"" width=""1486""><rect height=""67.2"" width=""67.2""y=""302.4""x=""1114.5"" fill=""red""/></svg>","76","stim_present","test","red","right","html-keyboard-response","58","53388","0.0-3.0-0.0-1.15","yn8a","true"
"348.6300000004121","<svg height=""672"" width=""1486""><rect height=""67.2"" width=""67.2""y=""302.4""x=""371.5"" fill=""green""/></svg>","76","stim_present","test","green","left","html-keyboard-response","60","54239","0.0-3.0-0.0-1.16","yn8a","false"
"554.4349999981932","<svg height=""672"" width=""1486""><rect height=""67.2"" width=""67.2""y=""302.4""x=""1114.5"" fill=""green""/></svg>","83","stim_present","test","green","right","html-keyboard-response","62","55302","0.0-3.0-0.0-1.17","yn8a","true"
"418.29499999585096","<svg height=""672"" width=""1486""><rect height=""67.2"" width=""67.2""y=""302.4""x=""1114.5"" fill=""red""/></svg>","76","stim_present","test","red","right","html-keyboard-response","64","56223","0.0-3.0-0.0-1.18","yn8a","true"
"479.25499999837484","<svg height=""672"" width=""1486""><rect height=""67.2"" width=""67.2""y=""302.4""x=""371.5"" fill=""red""/></svg>","76","stim_present","test","red","left","html-keyboard-response","66","57205","0.0-3.0-0.0-1.19","yn8a","true"
"446.55000000057044","<svg height=""672"" width=""1486""><rect height=""67.2"" width=""67.2""y=""302.4""x=""1114.5"" fill=""green""/></svg>","83","stim_present","test","green","right","html-keyboard-response","68","58159","0.0-3.0-0.0-1.20","yn8a","true"
"311.99999999807915","<svg height=""672"" width=""1486""><rect height=""67.2"" width=""67.2""y=""302.4""x=""371.5"" fill=""green""/></svg>","83","stim_present","test","green","left","html-keyboard-response","70","58974","0.0-3.0-0.0-1.21","yn8a","true"
"397.20999999553896","<svg height=""672"" width=""1486""><rect height=""67.2"" width=""67.2""y=""302.4""x=""709.4"" fill=""green""/></svg>","83","stim_present","test","green","middle","html-keyboard-response","72","59874","0.0-3.0-0.0-1.22","yn8a","true"
"466.29500000562984","<svg height=""672"" width=""1486""><rect height=""67.2"" width=""67.2""y=""302.4""x=""709.4"" fill=""red""/></svg>","76","stim_present","test","red","middle","html-keyboard-response","74","60842","0.0-3.0-0.0-1.23","yn8a","true"
"540.2150000008987","<svg height=""672"" width=""1486""><rect height=""67.2"" width=""67.2""y=""302.4""x=""371.5"" fill=""red""/></svg>","76","stim_present","test","red","left","html-keyboard-response","76","61884","0.0-3.0-0.0-1.24","yn8a","true"
"406.45499999664025","<svg height=""672"" width=""1486""><rect height=""67.2"" width=""67.2""y=""302.4""x=""1114.5"" fill=""green""/></svg>","83","stim_present","test","green","right","html-keyboard-response","78","62793","0.0-3.0-0.0-1.25","yn8a","true"
"544.7050000002491","<svg height=""672"" width=""1486""><rect height=""67.2"" width=""67.2""y=""302.4""x=""1114.5"" fill=""red""/></svg>","76","stim_present","test","red","right","html-keyboard-response","80","63850","0.0-3.0-0.0-1.26","yn8a","true"
"412.5500000009197","<svg height=""672"" width=""1486""><rect height=""67.2"" width=""67.2""y=""302.4""x=""371.5"" fill=""green""/></svg>","83","stim_present","test","green","left","html-keyboard-response","82","64779","0.0-3.0-0.0-1.27","yn8a","true"
"484.73000000376487","<svg height=""672"" width=""1486""><rect height=""67.2"" width=""67.2""y=""302.4""x=""709.4"" fill=""green""/></svg>","83","stim_present","test","green","middle","html-keyboard-response","84","65767","0.0-3.0-0.0-1.28","yn8a","true"
"333.5300000035204","<svg height=""672"" width=""1486""><rect height=""67.2"" width=""67.2""y=""302.4""x=""709.4"" fill=""red""/></svg>","76","stim_present","test","red","middle","html-keyboard-response","86","66603","0.0-3.0-0.0-1.29","yn8a","true"
"343.910000003234","<svg height=""672"" width=""1486""><rect height=""67.2"" width=""67.2""y=""302.4""x=""1114.5"" fill=""red""/></svg>","76","stim_present","test","red","right","html-keyboard-response","88","67449","0.0-3.0-0.0-1.30","yn8a","true"
"565.7399999981862","<svg height=""672"" width=""1486""><rect height=""67.2"" width=""67.2""y=""302.4""x=""1114.5"" fill=""green""/></svg>","83","stim_present","test","green","right","html-keyboard-response","90","68517","0.0-3.0-0.0-1.31","yn8a","true"
"314.33000000106404","<svg height=""672"" width=""1486""><rect height=""67.2"" width=""67.2""y=""302.4""x=""709.4"" fill=""red""/></svg>","76","stim_present","test","red","middle","html-keyboard-response","92","69335","0.0-3.0-0.0-1.32","yn8a","true"
"429.52999999397434","<svg height=""672"" width=""1486""><rect height=""67.2"" width=""67.2""y=""302.4""x=""371.5"" fill=""red""/></svg>","76","stim_present","test","red","left","html-keyboard-response","94","70277","0.0-3.0-0.0-1.33","yn8a","true"
"326.20999999926426","<svg height=""672"" width=""1486""><rect height=""67.2"" width=""67.2""y=""302.4""x=""371.5"" fill=""green""/></svg>","83","stim_present","test","green","left","html-keyboard-response","96","71106","0.0-3.0-0.0-1.34","yn8a","true"
"365.51499999768566","<svg height=""672"" width=""1486""><rect height=""67.2"" width=""67.2""y=""302.4""x=""709.4"" fill=""green""/></svg>","83","stim_present","test","green","middle","html-keyboard-response","98","71979","0.0-3.0-0.0-1.35","yn8a","true"
"345.2350000006845","<svg height=""672"" width=""1486""><rect height=""67.2"" width=""67.2""y=""302.4""x=""709.4"" fill=""green""/></svg>","83","stim_present","test","green","middle","html-keyboard-response","101","87059","0.0-3.0-0.1-1.36","yn8a","true"
"288.93999999854714","<svg height=""672"" width=""1486""><rect height=""67.2"" width=""67.2""y=""302.4""x=""371.5"" fill=""red""/></svg>","76","stim_present","test","red","left","html-keyboard-response","103","87860","0.0-3.0-0.1-1.37","yn8a","true"
"387.77500000287546","<svg height=""672"" width=""1486""><rect height=""67.2"" width=""67.2""y=""302.4""x=""1114.5"" fill=""green""/></svg>","76","stim_present","test","green","right","html-keyboard-response","105","88750","0.0-3.0-0.1-1.38","yn8a","false"
"373.0950000026496","<svg height=""672"" width=""1486""><rect height=""67.2"" width=""67.2""y=""302.4""x=""371.5"" fill=""green""/></svg>","83","stim_present","test","green","left","html-keyboard-response","107","89639","0.0-3.0-0.1-1.39","yn8a","true"
"377.4199999970733","<svg height=""672"" width=""1486""><rect height=""67.2"" width=""67.2""y=""302.4""x=""1114.5"" fill=""red""/></svg>","76","stim_present","test","red","right","html-keyboard-response","109","90519","0.0-3.0-0.1-1.40","yn8a","true"
"414.8200000054203","<svg height=""672"" width=""1486""><rect height=""67.2"" width=""67.2""y=""302.4""x=""709.4"" fill=""red""/></svg>","76","stim_present","test","red","middle","html-keyboard-response","111","91436","0.0-3.0-0.1-1.41","yn8a","true"
"360.89000000356464","<svg height=""672"" width=""1486""><rect height=""67.2"" width=""67.2""y=""302.4""x=""1114.5"" fill=""green""/></svg>","83","stim_present","test","green","right","html-keyboard-response","113","92304","0.0-3.0-0.1-1.42","yn8a","true"
"297.9849999974249","<svg height=""672"" width=""1486""><rect height=""67.2"" width=""67.2""y=""302.4""x=""371.5"" fill=""green""/></svg>","83","stim_present","test","green","left","html-keyboard-response","115","93105","0.0-3.0-0.1-1.43","yn8a","true"
"305.5199999944307","<svg height=""672"" width=""1486""><rect height=""67.2"" width=""67.2""y=""302.4""x=""1114.5"" fill=""red""/></svg>","76","stim_present","test","red","right","html-keyboard-response","117","93914","0.0-3.0-0.1-1.44","yn8a","true"
"327.9099999999744","<svg height=""672"" width=""1486""><rect height=""67.2"" width=""67.2""y=""302.4""x=""371.5"" fill=""red""/></svg>","76","stim_present","test","red","left","html-keyboard-response","119","94744","0.0-3.0-0.1-1.45","yn8a","true"
"325.72999999683816","<svg height=""672"" width=""1486""><rect height=""67.2"" width=""67.2""y=""302.4""x=""709.4"" fill=""green""/></svg>","83","stim_present","test","green","middle","html-keyboard-response","121","95572","0.0-3.0-0.1-1.46","yn8a","true"
"421.70000000623986","<svg height=""672"" width=""1486""><rect height=""67.2"" width=""67.2""y=""302.4""x=""709.4"" fill=""red""/></svg>","83","stim_present","test","red","middle","html-keyboard-response","123","96496","0.0-3.0-0.1-1.47","yn8a","false"
"341.34500000072876","<svg height=""672"" width=""1486""><rect height=""67.2"" width=""67.2""y=""302.4""x=""371.5"" fill=""green""/></svg>","83","stim_present","test","green","left","html-keyboard-response","125","97341","0.0-3.0-0.1-1.48","yn8a","true"
"347.07999999955064","<svg height=""672"" width=""1486""><rect height=""67.2"" width=""67.2""y=""302.4""x=""1114.5"" fill=""red""/></svg>","76","stim_present","test","red","right","html-keyboard-response","127","98190","0.0-3.0-0.1-1.49","yn8a","true"
"345.5900000044494","<svg height=""672"" width=""1486""><rect height=""67.2"" width=""67.2""y=""302.4""x=""709.4"" fill=""green""/></svg>","83","stim_present","test","green","middle","html-keyboard-response","129","99038","0.0-3.0-0.1-1.50","yn8a","true"
"364.7899999996298","<svg height=""672"" width=""1486""><rect height=""67.2"" width=""67.2""y=""302.4""x=""1114.5"" fill=""green""/></svg>","83","stim_present","test","green","right","html-keyboard-response","131","99906","0.0-3.0-0.1-1.51","yn8a","true"
"333.8499999954365","<svg height=""672"" width=""1486""><rect height=""67.2"" width=""67.2""y=""302.4""x=""709.4"" fill=""red""/></svg>","76","stim_present","test","red","middle","html-keyboard-response","133","100743","0.0-3.0-0.1-1.52","yn8a","true"
"435.0200000044424","<svg height=""672"" width=""1486""><rect height=""67.2"" width=""67.2""y=""302.4""x=""371.5"" fill=""red""/></svg>","76","stim_present","test","red","left","html-keyboard-response","135","101680","0.0-3.0-0.1-1.53","yn8a","true"
"357.15000000345754","<svg height=""672"" width=""1486""><rect height=""67.2"" width=""67.2""y=""302.4""x=""1114.5"" fill=""red""/></svg>","76","stim_present","test","red","right","html-keyboard-response","137","102540","0.0-3.0-0.1-1.54","yn8a","true"
"445.9350000033737","<svg height=""672"" width=""1486""><rect height=""67.2"" width=""67.2""y=""302.4""x=""1114.5"" fill=""green""/></svg>","83","stim_present","test","green","right","html-keyboard-response","139","103489","0.0-3.0-0.1-1.55","yn8a","true"
"269.6499999947264","<svg height=""672"" width=""1486""><rect height=""67.2"" width=""67.2""y=""302.4""x=""371.5"" fill=""green""/></svg>","83","stim_present","test","green","left","html-keyboard-response","141","104261","0.0-3.0-0.1-1.56","yn8a","true"
"333.8599999988219","<svg height=""672"" width=""1486""><rect height=""67.2"" width=""67.2""y=""302.4""x=""709.4"" fill=""green""/></svg>","83","stim_present","test","green","middle","html-keyboard-response","143","105097","0.0-3.0-0.1-1.57","yn8a","true"
"380.4999999993015","<svg height=""672"" width=""1486""><rect height=""67.2"" width=""67.2""y=""302.4""x=""709.4"" fill=""red""/></svg>","76","stim_present","test","red","middle","html-keyboard-response","145","105980","0.0-3.0-0.1-1.58","yn8a","true"
"390.9650000059628","<svg height=""672"" width=""1486""><rect height=""67.2"" width=""67.2""y=""302.4""x=""371.5"" fill=""red""/></svg>","76","stim_present","test","red","left","html-keyboard-response","147","106874","0.0-3.0-0.1-1.59","yn8a","true"
"359.5449999993434","<svg height=""672"" width=""1486""><rect height=""67.2"" width=""67.2""y=""302.4""x=""371.5"" fill=""green""/></svg>","83","stim_present","test","green","left","html-keyboard-response","149","107737","0.0-3.0-0.1-1.60","yn8a","true"
"1595.2400000023772","<svg height=""672"" width=""1486""><rect height=""67.2"" width=""67.2""y=""302.4""x=""1114.5"" fill=""red""/></svg>","76","stim_present","test","red","right","html-keyboard-response","151","109836","0.0-3.0-0.1-1.61","yn8a","true"
"397.6600000023609","<svg height=""672"" width=""1486""><rect height=""67.2"" width=""67.2""y=""302.4""x=""709.4"" fill=""green""/></svg>","83","stim_present","test","green","middle","html-keyboard-response","153","110738","0.0-3.0-0.1-1.62","yn8a","true"
"418.19000000396045","<svg height=""672"" width=""1486""><rect height=""67.2"" width=""67.2""y=""302.4""x=""1114.5"" fill=""green""/></svg>","83","stim_present","test","green","right","html-keyboard-response","155","111660","0.0-3.0-0.1-1.63","yn8a","true"
"288.5450000030687","<svg height=""672"" width=""1486""><rect height=""67.2"" width=""67.2""y=""302.4""x=""709.4"" fill=""red""/></svg>","76","stim_present","test","red","middle","html-keyboard-response","157","112451","0.0-3.0-0.1-1.64","yn8a","true"
"442.01500000053784","<svg height=""672"" width=""1486""><rect height=""67.2"" width=""67.2""y=""302.4""x=""371.5"" fill=""red""/></svg>","83","stim_present","test","red","left","html-keyboard-response","159","113396","0.0-3.0-0.1-1.65","yn8a","false"
"359.70500000257744","<svg height=""672"" width=""1486""><rect height=""67.2"" width=""67.2""y=""302.4""x=""371.5"" fill=""green""/></svg>","83","stim_present","test","green","left","html-keyboard-response","161","114259","0.0-3.0-0.1-1.66","yn8a","true"
"378.4749999977066","<svg height=""672"" width=""1486""><rect height=""67.2"" width=""67.2""y=""302.4""x=""1114.5"" fill=""red""/></svg>","76","stim_present","test","red","right","html-keyboard-response","163","115140","0.0-3.0-0.1-1.67","yn8a","true"
"316.00500000058673","<svg height=""672"" width=""1486""><rect height=""67.2"" width=""67.2""y=""302.4""x=""709.4"" fill=""red""/></svg>","76","stim_present","test","red","middle","html-keyboard-response","165","115959","0.0-3.0-0.1-1.68","yn8a","true"
"332.0850000018254","<svg height=""672"" width=""1486""><rect height=""67.2"" width=""67.2""y=""302.4""x=""709.4"" fill=""green""/></svg>","76","stim_present","test","green","middle","html-keyboard-response","167","116794","0.0-3.0-0.1-1.69","yn8a","false"
"495.10000000009313","<svg height=""672"" width=""1486""><rect height=""67.2"" width=""67.2""y=""302.4""x=""1114.5"" fill=""green""/></svg>","83","stim_present","test","green","right","html-keyboard-response","169","117798","0.0-3.0-0.1-1.70","yn8a","true"
"396.10499999980675","<svg height=""672"" width=""1486""><rect height=""67.2"" width=""67.2""y=""302.4""x=""371.5"" fill=""red""/></svg>","76","stim_present","test","red","left","html-keyboard-response","171","118697","0.0-3.0-0.1-1.71","yn8a","true"
"435.2900000012596","<svg height=""672"" width=""1486""><rect height=""67.2"" width=""67.2""y=""302.4""x=""709.4"" fill=""green""/></svg>","83","stim_present","test","green","middle","html-keyboard-response","174","126230","0.0-3.0-0.2-1.72","yn8a","true"
"423.6299999975017","<svg height=""672"" width=""1486""><rect height=""67.2"" width=""67.2""y=""302.4""x=""709.4"" fill=""red""/></svg>","76","stim_present","test","red","middle","html-keyboard-response","176","127155","0.0-3.0-0.2-1.73","yn8a","true"
"466.97000000131084","<svg height=""672"" width=""1486""><rect height=""67.2"" width=""67.2""y=""302.4""x=""371.5"" fill=""red""/></svg>","76","stim_present","test","red","left","html-keyboard-response","178","128128","0.0-3.0-0.2-1.74","yn8a","true"
"494.9599999963539","<svg height=""672"" width=""1486""><rect height=""67.2"" width=""67.2""y=""302.4""x=""371.5"" fill=""green""/></svg>","83","stim_present","test","green","left","html-keyboard-response","180","129126","0.0-3.0-0.2-1.75","yn8a","true"
"339.10499999910826","<svg height=""672"" width=""1486""><rect height=""67.2"" width=""67.2""y=""302.4""x=""1114.5"" fill=""red""/></svg>","76","stim_present","test","red","right","html-keyboard-response","182","129974","0.0-3.0-0.2-1.76","yn8a","true"
"436.4149999964866","<svg height=""672"" width=""1486""><rect height=""67.2"" width=""67.2""y=""302.4""x=""1114.5"" fill=""green""/></svg>","83","stim_present","test","green","right","html-keyboard-response","184","130913","0.0-3.0-0.2-1.77","yn8a","true"
"358.8899999958812","<svg height=""672"" width=""1486""><rect height=""67.2"" width=""67.2""y=""302.4""x=""709.4"" fill=""green""/></svg>","83","stim_present","test","green","middle","html-keyboard-response","186","131775","0.0-3.0-0.2-1.78","yn8a","true"
"335.8299999963492","<svg height=""672"" width=""1486""><rect height=""67.2"" width=""67.2""y=""302.4""x=""371.5"" fill=""green""/></svg>","83","stim_present","test","green","left","html-keyboard-response","188","132615","0.0-3.0-0.2-1.79","yn8a","true"
"345.2899999974761","<svg height=""672"" width=""1486""><rect height=""67.2"" width=""67.2""y=""302.4""x=""709.4"" fill=""red""/></svg>","76","stim_present","test","red","middle","html-keyboard-response","190","133463","0.0-3.0-0.2-1.80","yn8a","true"
"357.17500000464497","<svg height=""672"" width=""1486""><rect height=""67.2"" width=""67.2""y=""302.4""x=""1114.5"" fill=""green""/></svg>","83","stim_present","test","green","right","html-keyboard-response","192","134322","0.0-3.0-0.2-1.81","yn8a","true"
"433.77999999938766","<svg height=""672"" width=""1486""><rect height=""67.2"" width=""67.2""y=""302.4""x=""1114.5"" fill=""red""/></svg>","76","stim_present","test","red","right","html-keyboard-response","194","135259","0.0-3.0-0.2-1.82","yn8a","true"
"601.5799999950104","<svg height=""672"" width=""1486""><rect height=""67.2"" width=""67.2""y=""302.4""x=""371.5"" fill=""red""/></svg>","76","stim_present","test","red","left","html-keyboard-response","196","136363","0.0-3.0-0.2-1.83","yn8a","true"
"350.1749999995809","<svg height=""672"" width=""1486""><rect height=""67.2"" width=""67.2""y=""302.4""x=""1114.5"" fill=""red""/></svg>","76","stim_present","test","red","right","html-keyboard-response","198","137216","0.0-3.0-0.2-1.84","yn8a","true"
"426.8999999985681","<svg height=""672"" width=""1486""><rect height=""67.2"" width=""67.2""y=""302.4""x=""1114.5"" fill=""green""/></svg>","83","stim_present","test","green","right","html-keyboard-response","200","138152","0.0-3.0-0.2-1.85","yn8a","true"
"322.5749999983236","<svg height=""672"" width=""1486""><rect height=""67.2"" width=""67.2""y=""302.4""x=""371.5"" fill=""green""/></svg>","83","stim_present","test","green","left","html-keyboard-response","202","138977","0.0-3.0-0.2-1.86","yn8a","true"
"484.52499999984866","<svg height=""672"" width=""1486""><rect height=""67.2"" width=""67.2""y=""302.4""x=""371.5"" fill=""red""/></svg>","76","stim_present","test","red","left","html-keyboard-response","204","139963","0.0-3.0-0.2-1.87","yn8a","true"
"341.9849999991129","<svg height=""672"" width=""1486""><rect height=""67.2"" width=""67.2""y=""302.4""x=""709.4"" fill=""red""/></svg>","76","stim_present","test","red","middle","html-keyboard-response","206","140808","0.0-3.0-0.2-1.88","yn8a","true"
"376.6150000010384","<svg height=""672"" width=""1486""><rect height=""67.2"" width=""67.2""y=""302.4""x=""709.4"" fill=""green""/></svg>","83","stim_present","test","green","middle","html-keyboard-response","208","141688","0.0-3.0-0.2-1.89","yn8a","true"
"385.004999996454","<svg height=""672"" width=""1486""><rect height=""67.2"" width=""67.2""y=""302.4""x=""1114.5"" fill=""red""/></svg>","76","stim_present","test","red","right","html-keyboard-response","210","142589","0.0-3.0-0.2-1.90","yn8a","true"
"363.30500000622123","<svg height=""672"" width=""1486""><rect height=""67.2"" width=""67.2""y=""302.4""x=""709.4"" fill=""green""/></svg>","83","stim_present","test","green","middle","html-keyboard-response","212","143455","0.0-3.0-0.2-1.91","yn8a","true"
"415.6950000033248","<svg height=""672"" width=""1486""><rect height=""67.2"" width=""67.2""y=""302.4""x=""709.4"" fill=""red""/></svg>","76","stim_present","test","red","middle","html-keyboard-response","214","144374","0.0-3.0-0.2-1.92","yn8a","true"
"448.47999999910826","<svg height=""672"" width=""1486""><rect height=""67.2"" width=""67.2""y=""302.4""x=""371.5"" fill=""green""/></svg>","83","stim_present","test","green","left","html-keyboard-response","216","145324","0.0-3.0-0.2-1.93","yn8a","true"
"380.77000000339467","<svg height=""672"" width=""1486""><rect height=""67.2"" width=""67.2""y=""302.4""x=""1114.5"" fill=""green""/></svg>","83","stim_present","test","green","right","html-keyboard-response","218","146219","0.0-3.0-0.2-1.94","yn8a","true"
"387.43499999691267","<svg height=""672"" width=""1486""><rect height=""67.2"" width=""67.2""y=""302.4""x=""371.5"" fill=""red""/></svg>","83","stim_present","test","red","left","html-keyboard-response","220","147114","0.0-3.0-0.2-1.95","yn8a","false"
"332.16999999422114","<svg height=""672"" width=""1486""><rect height=""67.2"" width=""67.2""y=""302.4""x=""371.5"" fill=""green""/></svg>","83","stim_present","test","green","left","html-keyboard-response","222","147949","0.0-3.0-0.2-1.96","yn8a","true"
"383.0950000046869","<svg height=""672"" width=""1486""><rect height=""67.2"" width=""67.2""y=""302.4""x=""1114.5"" fill=""green""/></svg>","83","stim_present","test","green","right","html-keyboard-response","224","148841","0.0-3.0-0.2-1.97","yn8a","true"
"365.204999994603","<svg height=""672"" width=""1486""><rect height=""67.2"" width=""67.2""y=""302.4""x=""709.4"" fill=""green""/></svg>","83","stim_present","test","green","middle","html-keyboard-response","226","149722","0.0-3.0-0.2-1.98","yn8a","true"
"295.3849999976228","<svg height=""672"" width=""1486""><rect height=""67.2"" width=""67.2""y=""302.4""x=""709.4"" fill=""red""/></svg>","76","stim_present","test","red","middle","html-keyboard-response","228","150529","0.0-3.0-0.2-1.99","yn8a","true"
"351.8649999969057","<svg height=""672"" width=""1486""><rect height=""67.2"" width=""67.2""y=""302.4""x=""1114.5"" fill=""red""/></svg>","76","stim_present","test","red","right","html-keyboard-response","230","151383","0.0-3.0-0.2-1.100","yn8a","true"
"398.4550000022864","<svg height=""672"" width=""1486""><rect height=""67.2"" width=""67.2""y=""302.4""x=""371.5"" fill=""red""/></svg>","76","stim_present","test","red","left","html-keyboard-response","232","152284","0.0-3.0-0.2-1.101","yn8a","true"
"368.85500000062166","<svg height=""672"" width=""1486""><rect height=""67.2"" width=""67.2""y=""302.4""x=""371.5"" fill=""green""/></svg>","83","stim_present","test","green","left","html-keyboard-response","234","153156","0.0-3.0-0.2-1.102","yn8a","true"
"397.42000000114786","<svg height=""672"" width=""1486""><rect height=""67.2"" width=""67.2""y=""302.4""x=""709.4"" fill=""red""/></svg>","76","stim_present","test","red","middle","html-keyboard-response","236","154057","0.0-3.0-0.2-1.103","yn8a","true"
"412.64999999839347","<svg height=""672"" width=""1486""><rect height=""67.2"" width=""67.2""y=""302.4""x=""1114.5"" fill=""green""/></svg>","83","stim_present","test","green","right","html-keyboard-response","238","154979","0.0-3.0-0.2-1.104","yn8a","true"
"383.2399999955669","<svg height=""672"" width=""1486""><rect height=""67.2"" width=""67.2""y=""302.4""x=""709.4"" fill=""green""/></svg>","83","stim_present","test","green","middle","html-keyboard-response","240","155865","0.0-3.0-0.2-1.105","yn8a","true"
"371.2000000014086","<svg height=""672"" width=""1486""><rect height=""67.2"" width=""67.2""y=""302.4""x=""1114.5"" fill=""red""/></svg>","76","stim_present","test","red","right","html-keyboard-response","242","156738","0.0-3.0-0.2-1.106","yn8a","true"
"313.1500000017695","<svg height=""672"" width=""1486""><rect height=""67.2"" width=""67.2""y=""302.4""x=""371.5"" fill=""red""/></svg>","76","stim_present","test","red","left","html-keyboard-response","244","157553","0.0-3.0-0.2-1.107","yn8a","true"
"445.6999999965774","<svg height=""672"" width=""1486""><rect height=""67.2"" width=""67.2""y=""302.4""x=""371.5"" fill=""red""/></svg>","76","stim_present","test","red","left","html-keyboard-response","247","159161","0.0-3.0-0.3-1.108","yn8a","true"
"322.69999999698484","<svg height=""672"" width=""1486""><rect height=""67.2"" width=""67.2""y=""302.4""x=""709.4"" fill=""red""/></svg>","76","stim_present","test","red","middle","html-keyboard-response","249","159993","0.0-3.0-0.3-1.109","yn8a","true"
"341.8000000019674","<svg height=""672"" width=""1486""><rect height=""67.2"" width=""67.2""y=""302.4""x=""709.4"" fill=""green""/></svg>","83","stim_present","test","green","middle","html-keyboard-response","251","160842","0.0-3.0-0.3-1.110","yn8a","true"
"646.9950000027893","<svg height=""672"" width=""1486""><rect height=""67.2"" width=""67.2""y=""302.4""x=""1114.5"" fill=""red""/></svg>","83","stim_present","test","red","right","html-keyboard-response","253","162002","0.0-3.0-0.3-1.111","yn8a","false"
"323.61500000115484","<svg height=""672"" width=""1486""><rect height=""67.2"" width=""67.2""y=""302.4""x=""1114.5"" fill=""green""/></svg>","83","stim_present","test","green","right","html-keyboard-response","255","162829","0.0-3.0-0.3-1.112","yn8a","true"
"476.55500000109896","<svg height=""672"" width=""1486""><rect height=""67.2"" width=""67.2""y=""302.4""x=""371.5"" fill=""green""/></svg>","76","stim_present","test","green","left","html-keyboard-response","257","163808","0.0-3.0-0.3-1.113","yn8a","false"
"422.0449999993434","<svg height=""672"" width=""1486""><rect height=""67.2"" width=""67.2""y=""302.4""x=""1114.5"" fill=""red""/></svg>","76","stim_present","test","red","right","html-keyboard-response","259","164742","0.0-3.0-0.3-1.114","yn8a","true"
"384.18000000092434","<svg height=""672"" width=""1486""><rect height=""67.2"" width=""67.2""y=""302.4""x=""371.5"" fill=""green""/></svg>","83","stim_present","test","green","left","html-keyboard-response","261","165641","0.0-3.0-0.3-1.115","yn8a","true"
"399.19499999814434","<svg height=""672"" width=""1486""><rect height=""67.2"" width=""67.2""y=""302.4""x=""1114.5"" fill=""green""/></svg>","83","stim_present","test","green","right","html-keyboard-response","263","166542","0.0-3.0-0.3-1.116","yn8a","true"
"338.19499999663094","<svg height=""672"" width=""1486""><rect height=""67.2"" width=""67.2""y=""302.4""x=""709.4"" fill=""red""/></svg>","76","stim_present","test","red","middle","html-keyboard-response","265","167383","0.0-3.0-0.3-1.117","yn8a","true"
"366.7750000022352","<svg height=""672"" width=""1486""><rect height=""67.2"" width=""67.2""y=""302.4""x=""709.4"" fill=""green""/></svg>","83","stim_present","test","green","middle","html-keyboard-response","267","168252","0.0-3.0-0.3-1.118","yn8a","true"
"371.964999998454","<svg height=""672"" width=""1486""><rect height=""67.2"" width=""67.2""y=""302.4""x=""371.5"" fill=""red""/></svg>","76","stim_present","test","red","left","html-keyboard-response","269","169127","0.0-3.0-0.3-1.119","yn8a","true"
"343.42499999911524","<svg height=""672"" width=""1486""><rect height=""67.2"" width=""67.2""y=""302.4""x=""371.5"" fill=""red""/></svg>","76","stim_present","test","red","left","html-keyboard-response","271","169972","0.0-3.0-0.3-1.120","yn8a","true"
"475.32499999942956","<svg height=""672"" width=""1486""><rect height=""67.2"" width=""67.2""y=""302.4""x=""709.4"" fill=""red""/></svg>","76","stim_present","test","red","middle","html-keyboard-response","273","170951","0.0-3.0-0.3-1.121","yn8a","true"
"367.72000000200933","<svg height=""672"" width=""1486""><rect height=""67.2"" width=""67.2""y=""302.4""x=""1114.5"" fill=""red""/></svg>","76","stim_present","test","red","right","html-keyboard-response","275","171822","0.0-3.0-0.3-1.122","yn8a","true"
"440.8199999961653","<svg height=""672"" width=""1486""><rect height=""67.2"" width=""67.2""y=""302.4""x=""371.5"" fill=""green""/></svg>","83","stim_present","test","green","left","html-keyboard-response","277","172766","0.0-3.0-0.3-1.123","yn8a","true"
"619.5549999974901","<svg height=""672"" width=""1486""><rect height=""67.2"" width=""67.2""y=""302.4""x=""1114.5"" fill=""green""/></svg>","83","stim_present","test","green","right","html-keyboard-response","279","173902","0.0-3.0-0.3-1.124","yn8a","true"
"373.9500000010594","<svg height=""672"" width=""1486""><rect height=""67.2"" width=""67.2""y=""302.4""x=""709.4"" fill=""green""/></svg>","83","stim_present","test","green","middle","html-keyboard-response","281","174778","0.0-3.0-0.3-1.125","yn8a","true"
"343.8749999986612","<svg height=""672"" width=""1486""><rect height=""67.2"" width=""67.2""y=""302.4""x=""1114.5"" fill=""green""/></svg>","83","stim_present","test","green","right","html-keyboard-response","283","175625","0.0-3.0-0.3-1.126","yn8a","true"
"441.0199999983888","<svg height=""672"" width=""1486""><rect height=""67.2"" width=""67.2""y=""302.4""x=""709.4"" fill=""red""/></svg>","76","stim_present","test","red","middle","html-keyboard-response","285","176581","0.0-3.0-0.3-1.127","yn8a","true"
"447.11500000266824","<svg height=""672"" width=""1486""><rect height=""67.2"" width=""67.2""y=""302.4""x=""371.5"" fill=""red""/></svg>","76","stim_present","test","red","left","html-keyboard-response","287","177532","0.0-3.0-0.3-1.128","yn8a","true"
"463.97499999875436","<svg height=""672"" width=""1486""><rect height=""67.2"" width=""67.2""y=""302.4""x=""1114.5"" fill=""red""/></svg>","76","stim_present","test","red","right","html-keyboard-response","289","178499","0.0-3.0-0.3-1.129","yn8a","true"
"294.9449999941862","<svg height=""672"" width=""1486""><rect height=""67.2"" width=""67.2""y=""302.4""x=""371.5"" fill=""green""/></svg>","83","stim_present","test","green","left","html-keyboard-response","291","179296","0.0-3.0-0.3-1.130","yn8a","true"
"327.34999999956926","<svg height=""672"" width=""1486""><rect height=""67.2"" width=""67.2""y=""302.4""x=""709.4"" fill=""green""/></svg>","83","stim_present","test","green","middle","html-keyboard-response","293","180131","0.0-3.0-0.3-1.131","yn8a","true"
"335.01000000251224","<svg height=""672"" width=""1486""><rect height=""67.2"" width=""67.2""y=""302.4""x=""371.5"" fill=""red""/></svg>","76","stim_present","test","red","left","html-keyboard-response","295","180974","0.0-3.0-0.3-1.132","yn8a","true"
"593.605000001844","<svg height=""672"" width=""1486""><rect height=""67.2"" width=""67.2""y=""302.4""x=""371.5"" fill=""green""/></svg>","83","stim_present","test","green","left","html-keyboard-response","297","182077","0.0-3.0-0.3-1.133","yn8a","true"
"324.45000000006985","<svg height=""672"" width=""1486""><rect height=""67.2"" width=""67.2""y=""302.4""x=""709.4"" fill=""green""/></svg>","83","stim_present","test","green","middle","html-keyboard-response","299","182904","0.0-3.0-0.3-1.134","yn8a","true"
"359.21000000234926","<svg height=""672"" width=""1486""><rect height=""67.2"" width=""67.2""y=""302.4""x=""709.4"" fill=""red""/></svg>","76","stim_present","test","red","middle","html-keyboard-response","301","183766","0.0-3.0-0.3-1.135","yn8a","true"
"372.9349999994156","<svg height=""672"" width=""1486""><rect height=""67.2"" width=""67.2""y=""302.4""x=""1114.5"" fill=""red""/></svg>","76","stim_present","test","red","right","html-keyboard-response","303","184642","0.0-3.0-0.3-1.136","yn8a","true"
"361.7599999997765","<svg height=""672"" width=""1486""><rect height=""67.2"" width=""67.2""y=""302.4""x=""1114.5"" fill=""green""/></svg>","83","stim_present","test","green","right","html-keyboard-response","305","185507","0.0-3.0-0.3-1.137","yn8a","true"
"333.5349999979371","<svg height=""672"" width=""1486""><rect height=""67.2"" width=""67.2""y=""302.4""x=""371.5"" fill=""red""/></svg>","76","stim_present","test","red","left","html-keyboard-response","307","186342","0.0-3.0-0.3-1.138","yn8a","true"
"725.3200000050128","<svg height=""672"" width=""1486""><rect height=""67.2"" width=""67.2""y=""302.4""x=""1114.5"" fill=""red""/></svg>","76","stim_present","test","red","right","html-keyboard-response","309","187571","0.0-3.0-0.3-1.139","yn8a","true"
"332.72500000020955","<svg height=""672"" width=""1486""><rect height=""67.2"" width=""67.2""y=""302.4""x=""709.4"" fill=""green""/></svg>","83","stim_present","test","green","middle","html-keyboard-response","311","188407","0.0-3.0-0.3-1.140","yn8a","true"
"524.7400000007474","<svg height=""672"" width=""1486""><rect height=""67.2"" width=""67.2""y=""302.4""x=""1114.5"" fill=""green""/></svg>","83","stim_present","test","green","right","html-keyboard-response","313","189437","0.0-3.0-0.3-1.141","yn8a","true"
"301.5349999986938","<svg height=""672"" width=""1486""><rect height=""67.2"" width=""67.2""y=""302.4""x=""709.4"" fill=""red""/></svg>","76","stim_present","test","red","middle","html-keyboard-response","315","190240","0.0-3.0-0.3-1.142","yn8a","true"
"426.70499999803724","<svg height=""672"" width=""1486""><rect height=""67.2"" width=""67.2""y=""302.4""x=""371.5"" fill=""green""/></svg>","83","stim_present","test","green","left","html-keyboard-response","317","191169","0.0-3.0-0.3-1.143","yn8a","true"
