"rt","stimulus","key_press","type","part","color","position","trial_type","trial_index","time_elapsed","internal_node_id","subject","accuracy"
"1118.8000000547618","<svg height=""919"" width=""1870""><rect height=""91.9"" width=""91.9""y=""413.55""x=""467.5"" fill=""red""/></svg>","76","stim_present","training","red","left","html-keyboard-response","3","16374","0.0-2.0-0.0-1.0","4ul5","true"
"911.324999993667","<svg height=""919"" width=""1870""><rect height=""91.9"" width=""91.9""y=""413.55""x=""1402.5"" fill=""green""/></svg>","83","stim_present","training","green","right","html-keyboard-response","5","17794","0.0-2.0-0.0-1.1","4ul5","true"
"750.4149999003857","<svg height=""919"" width=""1870""><rect height=""91.9"" width=""91.9""y=""413.55""x=""889.05"" fill=""red""/></svg>","76","stim_present","training","red","middle","html-keyboard-response","7","19049","0.0-2.0-0.0-1.2","4ul5","true"
"1061.3250001333654","<svg height=""919"" width=""1870""><rect height=""91.9"" width=""91.9""y=""413.55""x=""1402.5"" fill=""red""/></svg>","76","stim_present","training","red","right","html-keyboard-response","9","20616","0.0-2.0-0.0-1.3","4ul5","true"
"562.4450000468642","<svg height=""919"" width=""1870""><rect height=""91.9"" width=""91.9""y=""413.55""x=""889.05"" fill=""green""/></svg>","83","stim_present","training","green","middle","html-keyboard-response","11","21684","0.0-2.0-0.0-1.4","4ul5","true"
"539.2350000329316","<svg height=""919"" width=""1870""><rect height=""91.9"" width=""91.9""y=""413.55""x=""467.5"" fill=""green""/></svg>","83","stim_present","training","green","left","html-keyboard-response","13","22730","0.0-2.0-0.0-1.5","4ul5","true"
"481.8049999885261","<svg height=""919"" width=""1870""><rect height=""91.9"" width=""91.9""y=""413.55""x=""467.5"" fill=""green""/></svg>","83","stim_present","training","green","left","html-keyboard-response","15","23720","0.0-2.0-0.0-1.6","4ul5","true"
"469.6749998256564","<svg height=""919"" width=""1870""><rect height=""91.9"" width=""91.9""y=""413.55""x=""889.05"" fill=""red""/></svg>","76","stim_present","training","red","middle","html-keyboard-response","17","24692","0.0-2.0-0.0-1.7","4ul5","true"
"497.8099998552352","<svg height=""919"" width=""1870""><rect height=""91.9"" width=""91.9""y=""413.55""x=""1402.5"" fill=""green""/></svg>","83","stim_present","training","green","right","html-keyboard-response","19","25707","0.0-2.0-0.0-1.8","4ul5","true"
"723.8300000317395","<svg height=""919"" width=""1870""><rect height=""91.9"" width=""91.9""y=""413.55""x=""1402.5"" fill=""red""/></svg>","76","stim_present","training","red","right","html-keyboard-response","21","26933","0.0-2.0-0.0-1.9","4ul5","true"
"567.2300001606345","<svg height=""919"" width=""1870""><rect height=""91.9"" width=""91.9""y=""413.55""x=""467.5"" fill=""red""/></svg>","76","stim_present","training","red","left","html-keyboard-response","23","28010","0.0-2.0-0.0-1.10","4ul5","true"
"451.450000051409","<svg height=""919"" width=""1870""><rect height=""91.9"" width=""91.9""y=""413.55""x=""889.05"" fill=""green""/></svg>","83","stim_present","training","green","middle","html-keyboard-response","25","28965","0.0-2.0-0.0-1.11","4ul5","true"
"622.2550000529736","<svg height=""919"" width=""1870""><rect height=""91.9"" width=""91.9""y=""413.55""x=""467.5"" fill=""red""/></svg>","76","stim_present","test","red","left","html-keyboard-response","28","34002","0.0-3.0-0.0-1.0","4ul5","true"
"494.6149999741465","<svg height=""919"" width=""1870""><rect height=""91.9"" width=""91.9""y=""413.55""x=""889.05"" fill=""red""/></svg>","76","stim_present","test","red","middle","html-keyboard-response","30","35004","0.0-3.0-0.0-1.1","4ul5","true"
"377.30999989435077","<svg height=""919"" width=""1870""><rect height=""91.9"" width=""91.9""y=""413.55""x=""1402.5"" fill=""red""/></svg>","76","stim_present","test","red","right","html-keyboard-response","32","35889","0.0-3.0-0.0-1.2","4ul5","true"
"441.43000012263656","<svg height=""919"" width=""1870""><rect height=""91.9"" width=""91.9""y=""413.55""x=""889.05"" fill=""green""/></svg>","83","stim_present","test","green","middle","html-keyboard-response","34","36835","0.0-3.0-0.0-1.3","4ul5","true"
"418.4000000823289","<svg height=""919"" width=""1870""><rect height=""91.9"" width=""91.9""y=""413.55""x=""467.5"" fill=""green""/></svg>","83","stim_present","test","green","left","html-keyboard-response","36","37759","0.0-3.0-0.0-1.4","4ul5","true"
"510.8600000385195","<svg height=""919"" width=""1870""><rect height=""91.9"" width=""91.9""y=""413.55""x=""1402.5"" fill=""green""/></svg>","83","stim_present","test","green","right","html-keyboard-response","38","38781","0.0-3.0-0.0-1.5","4ul5","true"
"498.5449998639524","<svg height=""919"" width=""1870""><rect height=""91.9"" width=""91.9""y=""413.55""x=""467.5"" fill=""red""/></svg>","76","stim_present","test","red","left","html-keyboard-response","40","39789","0.0-3.0-0.0-1.6","4ul5","true"
"494.8750000912696","<svg height=""919"" width=""1870""><rect height=""91.9"" width=""91.9""y=""413.55""x=""889.05"" fill=""green""/></svg>","83","stim_present","test","green","middle","html-keyboard-response","42","40787","0.0-3.0-0.0-1.7","4ul5","true"
"591.0300000105053","<svg height=""919"" width=""1870""><rect height=""91.9"" width=""91.9""y=""413.55""x=""889.05"" fill=""red""/></svg>","76","stim_present","test","red","middle","html-keyboard-response","44","41883","0.0-3.0-0.0-1.8","4ul5","true"
"785.5799999088049","<svg height=""919"" width=""1870""><rect height=""91.9"" width=""91.9""y=""413.55""x=""467.5"" fill=""green""/></svg>","83","stim_present","test","green","left","html-keyboard-response","46","43173","0.0-3.0-0.0-1.9","4ul5","true"
"551.8750001210719","<svg height=""919"" width=""1870""><rect height=""91.9"" width=""91.9""y=""413.55""x=""1402.5"" fill=""red""/></svg>","83","stim_present","test","red","right","html-keyboard-response","48","44240","0.0-3.0-0.0-1.10","4ul5","false"
"661.5199998486787","<svg height=""919"" width=""1870""><rect height=""91.9"" width=""91.9""y=""413.55""x=""1402.5"" fill=""green""/></svg>","83","stim_present","test","green","right","html-keyboard-response","50","45406","0.0-3.0-0.0-1.11","4ul5","true"
"550.2049999777228","<svg height=""919"" width=""1870""><rect height=""91.9"" width=""91.9""y=""413.55""x=""889.05"" fill=""green""/></svg>","83","stim_present","test","green","middle","html-keyboard-response","52","46462","0.0-3.0-0.0-1.12","4ul5","true"
"457.8400000464171","<svg height=""919"" width=""1870""><rect height=""91.9"" width=""91.9""y=""413.55""x=""467.5"" fill=""green""/></svg>","83","stim_present","test","green","left","html-keyboard-response","54","47426","0.0-3.0-0.0-1.13","4ul5","true"
"463.63500016741455","<svg height=""919"" width=""1870""><rect height=""91.9"" width=""91.9""y=""413.55""x=""889.05"" fill=""red""/></svg>","76","stim_present","test","red","middle","html-keyboard-response","56","48395","0.0-3.0-0.0-1.14","4ul5","true"
"554.7899999655783","<svg height=""919"" width=""1870""><rect height=""91.9"" width=""91.9""y=""413.55""x=""1402.5"" fill=""green""/></svg>","83","stim_present","test","green","right","html-keyboard-response","58","49459","0.0-3.0-0.0-1.15","4ul5","true"
"534.345000050962","<svg height=""919"" width=""1870""><rect height=""91.9"" width=""91.9""y=""413.55""x=""467.5"" fill=""red""/></svg>","76","stim_present","test","red","left","html-keyboard-response","60","50500","0.0-3.0-0.0-1.16","4ul5","true"
"573.569999774918","<svg height=""919"" width=""1870""><rect height=""91.9"" width=""91.9""y=""413.55""x=""1402.5"" fill=""red""/></svg>","76","stim_present","test","red","right","html-keyboard-response","62","51582","0.0-3.0-0.0-1.17","4ul5","true"
"477.8350000269711","<svg height=""919"" width=""1870""><rect height=""91.9"" width=""91.9""y=""413.55""x=""889.05"" fill=""green""/></svg>","83","stim_present","test","green","middle","html-keyboard-response","64","52568","0.0-3.0-0.0-1.18","4ul5","true"
"393.3550000656396","<svg height=""919"" width=""1870""><rect height=""91.9"" width=""91.9""y=""413.55""x=""467.5"" fill=""green""/></svg>","83","stim_present","test","green","left","html-keyboard-response","66","53478","0.0-3.0-0.0-1.19","4ul5","true"
"535.1449998561293","<svg height=""919"" width=""1870""><rect height=""91.9"" width=""91.9""y=""413.55""x=""1402.5"" fill=""red""/></svg>","76","stim_present","test","red","right","html-keyboard-response","68","54525","0.0-3.0-0.0-1.20","4ul5","true"
"451.73000008799136","<svg height=""919"" width=""1870""><rect height=""91.9"" width=""91.9""y=""413.55""x=""889.05"" fill=""red""/></svg>","76","stim_present","test","red","middle","html-keyboard-response","70","55481","0.0-3.0-0.0-1.21","4ul5","true"
"408.8350001256913","<svg height=""919"" width=""1870""><rect height=""91.9"" width=""91.9""y=""413.55""x=""467.5"" fill=""red""/></svg>","76","stim_present","test","red","left","html-keyboard-response","72","56392","0.0-3.0-0.0-1.22","4ul5","true"
"433.7049999739975","<svg height=""919"" width=""1870""><rect height=""91.9"" width=""91.9""y=""413.55""x=""1402.5"" fill=""green""/></svg>","83","stim_present","test","green","right","html-keyboard-response","74","57336","0.0-3.0-0.0-1.23","4ul5","true"
"474.54000008292496","<svg height=""919"" width=""1870""><rect height=""91.9"" width=""91.9""y=""413.55""x=""467.5"" fill=""red""/></svg>","76","stim_present","test","red","left","html-keyboard-response","76","58317","0.0-3.0-0.0-1.24","4ul5","true"
"457.7899998985231","<svg height=""919"" width=""1870""><rect height=""91.9"" width=""91.9""y=""413.55""x=""1402.5"" fill=""red""/></svg>","76","stim_present","test","red","right","html-keyboard-response","78","59276","0.0-3.0-0.0-1.25","4ul5","true"
"604.774999897927","<svg height=""919"" width=""1870""><rect height=""91.9"" width=""91.9""y=""413.55""x=""1402.5"" fill=""green""/></svg>","83","stim_present","test","green","right","html-keyboard-response","80","60389","0.0-3.0-0.0-1.26","4ul5","true"
"479.95000006631017","<svg height=""919"" width=""1870""><rect height=""91.9"" width=""91.9""y=""413.55""x=""467.5"" fill=""green""/></svg>","83","stim_present","test","green","left","html-keyboard-response","82","61379","0.0-3.0-0.0-1.27","4ul5","true"
"521.9049998559058","<svg height=""919"" width=""1870""><rect height=""91.9"" width=""91.9""y=""413.55""x=""889.05"" fill=""green""/></svg>","83","stim_present","test","green","middle","html-keyboard-response","84","62409","0.0-3.0-0.0-1.28","4ul5","true"
"601.1950001120567","<svg height=""919"" width=""1870""><rect height=""91.9"" width=""91.9""y=""413.55""x=""889.05"" fill=""red""/></svg>","76","stim_present","test","red","middle","html-keyboard-response","86","63514","0.0-3.0-0.0-1.29","4ul5","true"
"545.7999999634922","<svg height=""919"" width=""1870""><rect height=""91.9"" width=""91.9""y=""413.55""x=""1402.5"" fill=""red""/></svg>","76","stim_present","test","red","right","html-keyboard-response","88","64568","0.0-3.0-0.0-1.30","4ul5","true"
"591.7199999094009","<svg height=""919"" width=""1870""><rect height=""91.9"" width=""91.9""y=""413.55""x=""889.05"" fill=""green""/></svg>","83","stim_present","test","green","middle","html-keyboard-response","90","65668","0.0-3.0-0.0-1.31","4ul5","true"
"1014.9350001011044","<svg height=""919"" width=""1870""><rect height=""91.9"" width=""91.9""y=""413.55""x=""1402.5"" fill=""green""/></svg>","83","stim_present","test","green","right","html-keyboard-response","92","67185","0.0-3.0-0.0-1.32","4ul5","true"
"385.0499999243766","<svg height=""919"" width=""1870""><rect height=""91.9"" width=""91.9""y=""413.55""x=""889.05"" fill=""red""/></svg>","76","stim_present","test","red","middle","html-keyboard-response","94","68079","0.0-3.0-0.0-1.33","4ul5","true"
"507.7349999919534","<svg height=""919"" width=""1870""><rect height=""91.9"" width=""91.9""y=""413.55""x=""467.5"" fill=""red""/></svg>","76","stim_present","test","red","left","html-keyboard-response","96","69089","0.0-3.0-0.0-1.34","4ul5","true"
"567.4000000581145","<svg height=""919"" width=""1870""><rect height=""91.9"" width=""91.9""y=""413.55""x=""467.5"" fill=""green""/></svg>","83","stim_present","test","green","left","html-keyboard-response","98","70164","0.0-3.0-0.0-1.35","4ul5","true"
"595.9199999924749","<svg height=""919"" width=""1870""><rect height=""91.9"" width=""91.9""y=""413.55""x=""467.5"" fill=""green""/></svg>","83","stim_present","test","green","left","html-keyboard-response","101","77918","0.0-3.0-0.1-1.36","4ul5","true"
"423.09000017121434","<svg height=""919"" width=""1870""><rect height=""91.9"" width=""91.9""y=""413.55""x=""889.05"" fill=""green""/></svg>","83","stim_present","test","green","middle","html-keyboard-response","103","78850","0.0-3.0-0.1-1.37","4ul5","true"
"417.55999997258186","<svg height=""919"" width=""1870""><rect height=""91.9"" width=""91.9""y=""413.55""x=""1402.5"" fill=""red""/></svg>","76","stim_present","test","red","right","html-keyboard-response","105","79774","0.0-3.0-0.1-1.38","4ul5","true"
"506.1850000638515","<svg height=""919"" width=""1870""><rect height=""91.9"" width=""91.9""y=""413.55""x=""1402.5"" fill=""green""/></svg>","83","stim_present","test","green","right","html-keyboard-response","107","80783","0.0-3.0-0.1-1.39","4ul5","true"
"454.1299999691546","<svg height=""919"" width=""1870""><rect height=""91.9"" width=""91.9""y=""413.55""x=""889.05"" fill=""red""/></svg>","76","stim_present","test","red","middle","html-keyboard-response","109","81739","0.0-3.0-0.1-1.40","4ul5","true"
"545.4000001773238","<svg height=""919"" width=""1870""><rect height=""91.9"" width=""91.9""y=""413.55""x=""467.5"" fill=""red""/></svg>","76","stim_present","test","red","left","html-keyboard-response","111","82786","0.0-3.0-0.1-1.41","4ul5","true"
"494.4050000049174","<svg height=""919"" width=""1870""><rect height=""91.9"" width=""91.9""y=""413.55""x=""889.05"" fill=""green""/></svg>","83","stim_present","test","green","middle","html-keyboard-response","113","83784","0.0-3.0-0.1-1.42","4ul5","true"
"450.4149998538196","<svg height=""919"" width=""1870""><rect height=""91.9"" width=""91.9""y=""413.55""x=""1402.5"" fill=""red""/></svg>","76","stim_present","test","red","right","html-keyboard-response","115","84741","0.0-3.0-0.1-1.43","4ul5","true"
"362.81000007875264","<svg height=""919"" width=""1870""><rect height=""91.9"" width=""91.9""y=""413.55""x=""889.05"" fill=""red""/></svg>","76","stim_present","test","red","middle","html-keyboard-response","117","85610","0.0-3.0-0.1-1.44","4ul5","true"
"366.5949997957796","<svg height=""919"" width=""1870""><rect height=""91.9"" width=""91.9""y=""413.55""x=""467.5"" fill=""green""/></svg>","83","stim_present","test","green","left","html-keyboard-response","119","86480","0.0-3.0-0.1-1.45","4ul5","true"
"438.069999916479","<svg height=""919"" width=""1870""><rect height=""91.9"" width=""91.9""y=""413.55""x=""1402.5"" fill=""green""/></svg>","83","stim_present","test","green","right","html-keyboard-response","121","87423","0.0-3.0-0.1-1.46","4ul5","true"
"487.7599999308586","<svg height=""919"" width=""1870""><rect height=""91.9"" width=""91.9""y=""413.55""x=""467.5"" fill=""red""/></svg>","76","stim_present","test","red","left","html-keyboard-response","123","88417","0.0-3.0-0.1-1.47","4ul5","true"
"539.5100000314415","<svg height=""919"" width=""1870""><rect height=""91.9"" width=""91.9""y=""413.55""x=""889.05"" fill=""green""/></svg>","83","stim_present","test","green","middle","html-keyboard-response","125","89461","0.0-3.0-0.1-1.48","4ul5","true"
"349.90999987348914","<svg height=""919"" width=""1870""><rect height=""91.9"" width=""91.9""y=""413.55""x=""1402.5"" fill=""red""/></svg>","76","stim_present","test","red","right","html-keyboard-response","127","90316","0.0-3.0-0.1-1.49","4ul5","true"
"417.29999985545874","<svg height=""919"" width=""1870""><rect height=""91.9"" width=""91.9""y=""413.55""x=""889.05"" fill=""red""/></svg>","76","stim_present","test","red","middle","html-keyboard-response","129","91240","0.0-3.0-0.1-1.50","4ul5","true"
"384.8800000268966","<svg height=""919"" width=""1870""><rect height=""91.9"" width=""91.9""y=""413.55""x=""467.5"" fill=""red""/></svg>","76","stim_present","test","red","left","html-keyboard-response","131","92127","0.0-3.0-0.1-1.51","4ul5","true"
"389.5799999590963","<svg height=""919"" width=""1870""><rect height=""91.9"" width=""91.9""y=""413.55""x=""1402.5"" fill=""green""/></svg>","83","stim_present","test","green","right","html-keyboard-response","133","93022","0.0-3.0-0.1-1.52","4ul5","true"
"727.405000012368","<svg height=""919"" width=""1870""><rect height=""91.9"" width=""91.9""y=""413.55""x=""467.5"" fill=""green""/></svg>","83","stim_present","test","green","left","html-keyboard-response","135","94255","0.0-3.0-0.1-1.53","4ul5","true"
"512.7549997996539","<svg height=""919"" width=""1870""><rect height=""91.9"" width=""91.9""y=""413.55""x=""1402.5"" fill=""red""/></svg>","76","stim_present","test","red","right","html-keyboard-response","137","95276","0.0-3.0-0.1-1.54","4ul5","true"
"510.11000014841557","<svg height=""919"" width=""1870""><rect height=""91.9"" width=""91.9""y=""413.55""x=""1402.5"" fill=""green""/></svg>","83","stim_present","test","green","right","html-keyboard-response","139","96288","0.0-3.0-0.1-1.55","4ul5","true"
"662.8449999261647","<svg height=""919"" width=""1870""><rect height=""91.9"" width=""91.9""y=""413.55""x=""467.5"" fill=""red""/></svg>","76","stim_present","test","red","left","html-keyboard-response","141","97459","0.0-3.0-0.1-1.56","4ul5","true"
"425.5850000772625","<svg height=""919"" width=""1870""><rect height=""91.9"" width=""91.9""y=""413.55""x=""889.05"" fill=""green""/></svg>","83","stim_present","test","green","middle","html-keyboard-response","143","98389","0.0-3.0-0.1-1.57","4ul5","true"
"380.390000063926","<svg height=""919"" width=""1870""><rect height=""91.9"" width=""91.9""y=""413.55""x=""467.5"" fill=""green""/></svg>","83","stim_present","test","green","left","html-keyboard-response","145","99275","0.0-3.0-0.1-1.58","4ul5","true"
"468.52500014938414","<svg height=""919"" width=""1870""><rect height=""91.9"" width=""91.9""y=""413.55""x=""889.05"" fill=""red""/></svg>","76","stim_present","test","red","middle","html-keyboard-response","147","100254","0.0-3.0-0.1-1.59","4ul5","true"
"477.7599999215454","<svg height=""919"" width=""1870""><rect height=""91.9"" width=""91.9""y=""413.55""x=""1402.5"" fill=""red""/></svg>","76","stim_present","test","red","right","html-keyboard-response","149","101240","0.0-3.0-0.1-1.60","4ul5","true"
"647.0449999906123","<svg height=""919"" width=""1870""><rect height=""91.9"" width=""91.9""y=""413.55""x=""467.5"" fill=""red""/></svg>","76","stim_present","test","red","left","html-keyboard-response","151","102394","0.0-3.0-0.1-1.61","4ul5","true"
"407.90500002913177","<svg height=""919"" width=""1870""><rect height=""91.9"" width=""91.9""y=""413.55""x=""889.05"" fill=""green""/></svg>","83","stim_present","test","green","middle","html-keyboard-response","153","103311","0.0-3.0-0.1-1.62","4ul5","true"
"361.3150001037866","<svg height=""919"" width=""1870""><rect height=""91.9"" width=""91.9""y=""413.55""x=""467.5"" fill=""green""/></svg>","83","stim_present","test","green","left","html-keyboard-response","155","104176","0.0-3.0-0.1-1.63","4ul5","true"
"397.57999987341464","<svg height=""919"" width=""1870""><rect height=""91.9"" width=""91.9""y=""413.55""x=""1402.5"" fill=""green""/></svg>","76","stim_present","test","green","right","html-keyboard-response","157","105077","0.0-3.0-0.1-1.64","4ul5","false"
"674.6700000949204","<svg height=""919"" width=""1870""><rect height=""91.9"" width=""91.9""y=""413.55""x=""889.05"" fill=""red""/></svg>","76","stim_present","test","red","middle","html-keyboard-response","159","106258","0.0-3.0-0.1-1.65","4ul5","true"
"494.7449997998774","<svg height=""919"" width=""1870""><rect height=""91.9"" width=""91.9""y=""413.55""x=""467.5"" fill=""red""/></svg>","76","stim_present","test","red","left","html-keyboard-response","161","107265","0.0-3.0-0.1-1.66","4ul5","true"
"561.6950001567602","<svg height=""919"" width=""1870""><rect height=""91.9"" width=""91.9""y=""413.55""x=""889.05"" fill=""green""/></svg>","83","stim_present","test","green","middle","html-keyboard-response","163","108330","0.0-3.0-0.1-1.67","4ul5","true"
"634.580000070855","<svg height=""919"" width=""1870""><rect height=""91.9"" width=""91.9""y=""413.55""x=""889.05"" fill=""red""/></svg>","76","stim_present","test","red","middle","html-keyboard-response","165","109467","0.0-3.0-0.1-1.68","4ul5","true"
"528.3800000324845","<svg height=""919"" width=""1870""><rect height=""91.9"" width=""91.9""y=""413.55""x=""1402.5"" fill=""green""/></svg>","83","stim_present","test","green","right","html-keyboard-response","167","110501","0.0-3.0-0.1-1.69","4ul5","true"
"712.7799999434501","<svg height=""919"" width=""1870""><rect height=""91.9"" width=""91.9""y=""413.55""x=""1402.5"" fill=""red""/></svg>","76","stim_present","test","red","right","html-keyboard-response","169","111716","0.0-3.0-0.1-1.70","4ul5","true"
"466.5100001730025","<svg height=""919"" width=""1870""><rect height=""91.9"" width=""91.9""y=""413.55""x=""467.5"" fill=""green""/></svg>","83","stim_present","test","green","left","html-keyboard-response","171","112690","0.0-3.0-0.1-1.71","4ul5","true"
"487.4850001651794","<svg height=""919"" width=""1870""><rect height=""91.9"" width=""91.9""y=""413.55""x=""889.05"" fill=""green""/></svg>","83","stim_present","test","green","middle","html-keyboard-response","174","124679","0.0-3.0-0.2-1.72","4ul5","true"
"446.4199999347329","<svg height=""919"" width=""1870""><rect height=""91.9"" width=""91.9""y=""413.55""x=""1402.5"" fill=""green""/></svg>","83","stim_present","test","green","right","html-keyboard-response","176","125629","0.0-3.0-0.2-1.73","4ul5","true"
"505.50500000827014","<svg height=""919"" width=""1870""><rect height=""91.9"" width=""91.9""y=""413.55""x=""467.5"" fill=""red""/></svg>","76","stim_present","test","red","left","html-keyboard-response","178","126637","0.0-3.0-0.2-1.74","4ul5","true"
"501.1499999091029","<svg height=""919"" width=""1870""><rect height=""91.9"" width=""91.9""y=""413.55""x=""467.5"" fill=""green""/></svg>","83","stim_present","test","green","left","html-keyboard-response","180","127641","0.0-3.0-0.2-1.75","4ul5","true"
"454.14000004529953","<svg height=""919"" width=""1870""><rect height=""91.9"" width=""91.9""y=""413.55""x=""1402.5"" fill=""red""/></svg>","76","stim_present","test","red","right","html-keyboard-response","182","128598","0.0-3.0-0.2-1.76","4ul5","true"
"542.7399999462068","<svg height=""919"" width=""1870""><rect height=""91.9"" width=""91.9""y=""413.55""x=""889.05"" fill=""red""/></svg>","76","stim_present","test","red","middle","html-keyboard-response","184","129643","0.0-3.0-0.2-1.77","4ul5","true"
"574.0150001365691","<svg height=""919"" width=""1870""><rect height=""91.9"" width=""91.9""y=""413.55""x=""467.5"" fill=""red""/></svg>","76","stim_present","test","red","left","html-keyboard-response","186","130719","0.0-3.0-0.2-1.78","4ul5","true"
"466.20999998413026","<svg height=""919"" width=""1870""><rect height=""91.9"" width=""91.9""y=""413.55""x=""1402.5"" fill=""green""/></svg>","83","stim_present","test","green","right","html-keyboard-response","188","131693","0.0-3.0-0.2-1.79","4ul5","true"
"433.7900001555681","<svg height=""919"" width=""1870""><rect height=""91.9"" width=""91.9""y=""413.55""x=""467.5"" fill=""green""/></svg>","83","stim_present","test","green","left","html-keyboard-response","190","132633","0.0-3.0-0.2-1.80","4ul5","true"
"501.47999986074865","<svg height=""919"" width=""1870""><rect height=""91.9"" width=""91.9""y=""413.55""x=""889.05"" fill=""red""/></svg>","76","stim_present","test","red","middle","html-keyboard-response","192","133637","0.0-3.0-0.2-1.81","4ul5","true"
"432.43000004440546","<svg height=""919"" width=""1870""><rect height=""91.9"" width=""91.9""y=""413.55""x=""1402.5"" fill=""red""/></svg>","76","stim_present","test","red","right","html-keyboard-response","194","134576","0.0-3.0-0.2-1.82","4ul5","true"
"421.57000000588596","<svg height=""919"" width=""1870""><rect height=""91.9"" width=""91.9""y=""413.55""x=""889.05"" fill=""green""/></svg>","83","stim_present","test","green","middle","html-keyboard-response","196","135504","0.0-3.0-0.2-1.83","4ul5","true"
"327.2850001230836","<svg height=""919"" width=""1870""><rect height=""91.9"" width=""91.9""y=""413.55""x=""889.05"" fill=""green""/></svg>","83","stim_present","test","green","middle","html-keyboard-response","198","136339","0.0-3.0-0.2-1.84","4ul5","true"
"622.5650000851601","<svg height=""919"" width=""1870""><rect height=""91.9"" width=""91.9""y=""413.55""x=""889.05"" fill=""red""/></svg>","76","stim_present","test","red","middle","html-keyboard-response","200","137466","0.0-3.0-0.2-1.85","4ul5","true"
"462.3549999669194","<svg height=""919"" width=""1870""><rect height=""91.9"" width=""91.9""y=""413.55""x=""1402.5"" fill=""green""/></svg>","83","stim_present","test","green","right","html-keyboard-response","202","138434","0.0-3.0-0.2-1.86","4ul5","true"
"459.42500000819564","<svg height=""919"" width=""1870""><rect height=""91.9"" width=""91.9""y=""413.55""x=""467.5"" fill=""red""/></svg>","76","stim_present","test","red","left","html-keyboard-response","204","139400","0.0-3.0-0.2-1.87","4ul5","true"
"362.8650000318885","<svg height=""919"" width=""1870""><rect height=""91.9"" width=""91.9""y=""413.55""x=""467.5"" fill=""green""/></svg>","76","stim_present","test","green","left","html-keyboard-response","206","140271","0.0-3.0-0.2-1.88","4ul5","false"
"453.05499993264675","<svg height=""919"" width=""1870""><rect height=""91.9"" width=""91.9""y=""413.55""x=""1402.5"" fill=""red""/></svg>","76","stim_present","test","red","right","html-keyboard-response","208","141232","0.0-3.0-0.2-1.89","4ul5","true"
"507.9200000036508","<svg height=""919"" width=""1870""><rect height=""91.9"" width=""91.9""y=""413.55""x=""1402.5"" fill=""green""/></svg>","83","stim_present","test","green","right","html-keyboard-response","210","142245","0.0-3.0-0.2-1.90","4ul5","true"
"736.670000012964","<svg height=""919"" width=""1870""><rect height=""91.9"" width=""91.9""y=""413.55""x=""1402.5"" fill=""red""/></svg>","76","stim_present","test","red","right","html-keyboard-response","212","143488","0.0-3.0-0.2-1.91","4ul5","true"
"742.3499999567866","<svg height=""919"" width=""1870""><rect height=""91.9"" width=""91.9""y=""413.55""x=""889.05"" fill=""green""/></svg>","83","stim_present","test","green","middle","html-keyboard-response","214","144734","0.0-3.0-0.2-1.92","4ul5","true"
"614.3849999643862","<svg height=""919"" width=""1870""><rect height=""91.9"" width=""91.9""y=""413.55""x=""889.05"" fill=""red""/></svg>","76","stim_present","test","red","middle","html-keyboard-response","216","145856","0.0-3.0-0.2-1.93","4ul5","true"
"485.7499999925494","<svg height=""919"" width=""1870""><rect height=""91.9"" width=""91.9""y=""413.55""x=""467.5"" fill=""red""/></svg>","76","stim_present","test","red","left","html-keyboard-response","218","146850","0.0-3.0-0.2-1.94","4ul5","true"
"413.53000001981854","<svg height=""919"" width=""1870""><rect height=""91.9"" width=""91.9""y=""413.55""x=""467.5"" fill=""green""/></svg>","83","stim_present","test","green","left","html-keyboard-response","220","147773","0.0-3.0-0.2-1.95","4ul5","true"
"523.3199999202043","<svg height=""919"" width=""1870""><rect height=""91.9"" width=""91.9""y=""413.55""x=""467.5"" fill=""green""/></svg>","83","stim_present","test","green","left","html-keyboard-response","222","148804","0.0-3.0-0.2-1.96","4ul5","true"
"428.3799999393523","<svg height=""919"" width=""1870""><rect height=""91.9"" width=""91.9""y=""413.55""x=""889.05"" fill=""green""/></svg>","83","stim_present","test","green","middle","html-keyboard-response","224","149742","0.0-3.0-0.2-1.97","4ul5","true"
"580.3099998738617","<svg height=""919"" width=""1870""><rect height=""91.9"" width=""91.9""y=""413.55""x=""467.5"" fill=""red""/></svg>","76","stim_present","test","red","left","html-keyboard-response","226","150831","0.0-3.0-0.2-1.98","4ul5","true"
"545.685000019148","<svg height=""919"" width=""1870""><rect height=""91.9"" width=""91.9""y=""413.55""x=""889.05"" fill=""red""/></svg>","76","stim_present","test","red","middle","html-keyboard-response","228","151880","0.0-3.0-0.2-1.99","4ul5","true"
"478.7500000093132","<svg height=""919"" width=""1870""><rect height=""91.9"" width=""91.9""y=""413.55""x=""1402.5"" fill=""green""/></svg>","83","stim_present","test","green","right","html-keyboard-response","230","152864","0.0-3.0-0.2-1.100","4ul5","true"
"509.64000006206334","<svg height=""919"" width=""1870""><rect height=""91.9"" width=""91.9""y=""413.55""x=""1402.5"" fill=""red""/></svg>","83","stim_present","test","red","right","html-keyboard-response","232","153884","0.0-3.0-0.2-1.101","4ul5","false"
"534.5250000245869","<svg height=""919"" width=""1870""><rect height=""91.9"" width=""91.9""y=""413.55""x=""1402.5"" fill=""green""/></svg>","83","stim_present","test","green","right","html-keyboard-response","234","154924","0.0-3.0-0.2-1.102","4ul5","true"
"474.76500016637146","<svg height=""919"" width=""1870""><rect height=""91.9"" width=""91.9""y=""413.55""x=""467.5"" fill=""red""/></svg>","76","stim_present","test","red","left","html-keyboard-response","236","155904","0.0-3.0-0.2-1.103","4ul5","true"
"445.2000001911074","<svg height=""919"" width=""1870""><rect height=""91.9"" width=""91.9""y=""413.55""x=""889.05"" fill=""green""/></svg>","83","stim_present","test","green","middle","html-keyboard-response","238","156852","0.0-3.0-0.2-1.104","4ul5","true"
"440.24999998509884","<svg height=""919"" width=""1870""><rect height=""91.9"" width=""91.9""y=""413.55""x=""467.5"" fill=""green""/></svg>","83","stim_present","test","green","left","html-keyboard-response","240","157796","0.0-3.0-0.2-1.105","4ul5","true"
"438.70000005699694","<svg height=""919"" width=""1870""><rect height=""91.9"" width=""91.9""y=""413.55""x=""1402.5"" fill=""red""/></svg>","76","stim_present","test","red","right","html-keyboard-response","242","158740","0.0-3.0-0.2-1.106","4ul5","true"
"518.7850000802428","<svg height=""919"" width=""1870""><rect height=""91.9"" width=""91.9""y=""413.55""x=""889.05"" fill=""red""/></svg>","76","stim_present","test","red","middle","html-keyboard-response","244","159769","0.0-3.0-0.2-1.107","4ul5","true"
"344.5350001566112","<svg height=""919"" width=""1870""><rect height=""91.9"" width=""91.9""y=""413.55""x=""889.05"" fill=""red""/></svg>","76","stim_present","test","red","middle","html-keyboard-response","247","169627","0.0-3.0-0.3-1.108","4ul5","true"
"428.4500000067055","<svg height=""919"" width=""1870""><rect height=""91.9"" width=""91.9""y=""413.55""x=""889.05"" fill=""green""/></svg>","83","stim_present","test","green","middle","html-keyboard-response","249","170563","0.0-3.0-0.3-1.109","4ul5","true"
"455.7300000451505","<svg height=""919"" width=""1870""><rect height=""91.9"" width=""91.9""y=""413.55""x=""1402.5"" fill=""green""/></svg>","83","stim_present","test","green","right","html-keyboard-response","251","171524","0.0-3.0-0.3-1.110","4ul5","true"
"457.66500011086464","<svg height=""919"" width=""1870""><rect height=""91.9"" width=""91.9""y=""413.55""x=""1402.5"" fill=""red""/></svg>","76","stim_present","test","red","right","html-keyboard-response","253","172487","0.0-3.0-0.3-1.111","4ul5","true"
"407.3749999515712","<svg height=""919"" width=""1870""><rect height=""91.9"" width=""91.9""y=""413.55""x=""467.5"" fill=""red""/></svg>","83","stim_present","test","red","left","html-keyboard-response","255","173405","0.0-3.0-0.3-1.112","4ul5","false"
"549.9750000890344","<svg height=""919"" width=""1870""><rect height=""91.9"" width=""91.9""y=""413.55""x=""467.5"" fill=""green""/></svg>","83","stim_present","test","green","left","html-keyboard-response","257","174462","0.0-3.0-0.3-1.113","4ul5","true"
"856.6099999006838","<svg height=""919"" width=""1870""><rect height=""91.9"" width=""91.9""y=""413.55""x=""1402.5"" fill=""red""/></svg>","76","stim_present","test","red","right","html-keyboard-response","259","175829","0.0-3.0-0.3-1.114","4ul5","true"
"412.01500012539327","<svg height=""919"" width=""1870""><rect height=""91.9"" width=""91.9""y=""413.55""x=""467.5"" fill=""green""/></svg>","83","stim_present","test","green","left","html-keyboard-response","261","176748","0.0-3.0-0.3-1.115","4ul5","true"
"570.5149997957051","<svg height=""919"" width=""1870""><rect height=""91.9"" width=""91.9""y=""413.55""x=""889.05"" fill=""green""/></svg>","83","stim_present","test","green","middle","html-keyboard-response","263","177828","0.0-3.0-0.3-1.116","4ul5","true"
"642.4600000027567","<svg height=""919"" width=""1870""><rect height=""91.9"" width=""91.9""y=""413.55""x=""467.5"" fill=""red""/></svg>","76","stim_present","test","red","left","html-keyboard-response","265","178978","0.0-3.0-0.3-1.117","4ul5","true"
"382.02000013552606","<svg height=""919"" width=""1870""><rect height=""91.9"" width=""91.9""y=""413.55""x=""889.05"" fill=""red""/></svg>","76","stim_present","test","red","middle","html-keyboard-response","267","179870","0.0-3.0-0.3-1.118","4ul5","true"
"570.9500000812113","<svg height=""919"" width=""1870""><rect height=""91.9"" width=""91.9""y=""413.55""x=""1402.5"" fill=""green""/></svg>","83","stim_present","test","green","right","html-keyboard-response","269","180948","0.0-3.0-0.3-1.119","4ul5","true"
"437.1299999766052","<svg height=""919"" width=""1870""><rect height=""91.9"" width=""91.9""y=""413.55""x=""1402.5"" fill=""green""/></svg>","83","stim_present","test","green","right","html-keyboard-response","271","181893","0.0-3.0-0.3-1.120","4ul5","true"
"458.48000003024936","<svg height=""919"" width=""1870""><rect height=""91.9"" width=""91.9""y=""413.55""x=""889.05"" fill=""red""/></svg>","76","stim_present","test","red","middle","html-keyboard-response","273","182859","0.0-3.0-0.3-1.121","4ul5","true"
"417.66000003553927","<svg height=""919"" width=""1870""><rect height=""91.9"" width=""91.9""y=""413.55""x=""467.5"" fill=""red""/></svg>","76","stim_present","test","red","left","html-keyboard-response","275","183784","0.0-3.0-0.3-1.122","4ul5","true"
"435.3450001217425","<svg height=""919"" width=""1870""><rect height=""91.9"" width=""91.9""y=""413.55""x=""467.5"" fill=""green""/></svg>","83","stim_present","test","green","left","html-keyboard-response","277","184722","0.0-3.0-0.3-1.123","4ul5","true"
"438.28499992378056","<svg height=""919"" width=""1870""><rect height=""91.9"" width=""91.9""y=""413.55""x=""1402.5"" fill=""red""/></svg>","76","stim_present","test","red","right","html-keyboard-response","279","185667","0.0-3.0-0.3-1.124","4ul5","true"
"439.76500001735985","<svg height=""919"" width=""1870""><rect height=""91.9"" width=""91.9""y=""413.55""x=""889.05"" fill=""green""/></svg>","83","stim_present","test","green","middle","html-keyboard-response","281","186611","0.0-3.0-0.3-1.125","4ul5","true"
"444.02500009164214","<svg height=""919"" width=""1870""><rect height=""91.9"" width=""91.9""y=""413.55""x=""1402.5"" fill=""green""/></svg>","83","stim_present","test","green","right","html-keyboard-response","283","187558","0.0-3.0-0.3-1.126","4ul5","true"
"406.34500002488494","<svg height=""919"" width=""1870""><rect height=""91.9"" width=""91.9""y=""413.55""x=""467.5"" fill=""green""/></svg>","83","stim_present","test","green","left","html-keyboard-response","285","188468","0.0-3.0-0.3-1.127","4ul5","true"
"464.5649997983128","<svg height=""919"" width=""1870""><rect height=""91.9"" width=""91.9""y=""413.55""x=""889.05"" fill=""green""/></svg>","83","stim_present","test","green","middle","html-keyboard-response","287","189438","0.0-3.0-0.3-1.128","4ul5","true"
"450.35500009544194","<svg height=""919"" width=""1870""><rect height=""91.9"" width=""91.9""y=""413.55""x=""889.05"" fill=""red""/></svg>","76","stim_present","test","red","middle","html-keyboard-response","289","190398","0.0-3.0-0.3-1.129","4ul5","true"
"507.16499984264374","<svg height=""919"" width=""1870""><rect height=""91.9"" width=""91.9""y=""413.55""x=""467.5"" fill=""red""/></svg>","76","stim_present","test","red","left","html-keyboard-response","291","191413","0.0-3.0-0.3-1.130","4ul5","true"
"458.5750000551343","<svg height=""919"" width=""1870""><rect height=""91.9"" width=""91.9""y=""413.55""x=""1402.5"" fill=""red""/></svg>","76","stim_present","test","red","right","html-keyboard-response","293","192378","0.0-3.0-0.3-1.131","4ul5","true"
"551.1249999981374","<svg height=""919"" width=""1870""><rect height=""91.9"" width=""91.9""y=""413.55""x=""1402.5"" fill=""green""/></svg>","83","stim_present","test","green","right","html-keyboard-response","295","193436","0.0-3.0-0.3-1.132","4ul5","true"
"517.6100002136081","<svg height=""919"" width=""1870""><rect height=""91.9"" width=""91.9""y=""413.55""x=""467.5"" fill=""green""/></svg>","83","stim_present","test","green","left","html-keyboard-response","297","194463","0.0-3.0-0.3-1.133","4ul5","true"
"495.9549999330193","<svg height=""919"" width=""1870""><rect height=""91.9"" width=""91.9""y=""413.55""x=""889.05"" fill=""green""/></svg>","83","stim_present","test","green","middle","html-keyboard-response","299","195466","0.0-3.0-0.3-1.134","4ul5","true"
"584.0549999848008","<svg height=""919"" width=""1870""><rect height=""91.9"" width=""91.9""y=""413.55""x=""889.05"" fill=""red""/></svg>","76","stim_present","test","red","middle","html-keyboard-response","301","196557","0.0-3.0-0.3-1.135","4ul5","true"
"664.8999999742955","<svg height=""919"" width=""1870""><rect height=""91.9"" width=""91.9""y=""413.55""x=""467.5"" fill=""red""/></svg>","76","stim_present","test","red","left","html-keyboard-response","303","197725","0.0-3.0-0.3-1.136","4ul5","true"
"478.6999998614192","<svg height=""919"" width=""1870""><rect height=""91.9"" width=""91.9""y=""413.55""x=""1402.5"" fill=""red""/></svg>","76","stim_present","test","red","right","html-keyboard-response","305","198708","0.0-3.0-0.3-1.137","4ul5","true"
"438.0000000819564","<svg height=""919"" width=""1870""><rect height=""91.9"" width=""91.9""y=""413.55""x=""1402.5"" fill=""green""/></svg>","83","stim_present","test","green","right","html-keyboard-response","307","199655","0.0-3.0-0.3-1.138","4ul5","true"
"563.5150000452995","<svg height=""919"" width=""1870""><rect height=""91.9"" width=""91.9""y=""413.55""x=""889.05"" fill=""red""/></svg>","76","stim_present","test","red","middle","html-keyboard-response","309","200727","0.0-3.0-0.3-1.139","4ul5","true"
"617.9500001017004","<svg height=""919"" width=""1870""><rect height=""91.9"" width=""91.9""y=""413.55""x=""467.5"" fill=""green""/></svg>","83","stim_present","test","green","left","html-keyboard-response","311","201853","0.0-3.0-0.3-1.140","4ul5","true"
"629.2799999937415","<svg height=""919"" width=""1870""><rect height=""91.9"" width=""91.9""y=""413.55""x=""889.05"" fill=""green""/></svg>","83","stim_present","test","green","middle","html-keyboard-response","313","202991","0.0-3.0-0.3-1.141","4ul5","true"
"405.0000000279397","<svg height=""919"" width=""1870""><rect height=""91.9"" width=""91.9""y=""413.55""x=""1402.5"" fill=""red""/></svg>","76","stim_present","test","red","right","html-keyboard-response","315","203905","0.0-3.0-0.3-1.142","4ul5","true"
"564.4099998753518","<svg height=""919"" width=""1870""><rect height=""91.9"" width=""91.9""y=""413.55""x=""467.5"" fill=""red""/></svg>","76","stim_present","test","red","left","html-keyboard-response","317","204974","0.0-3.0-0.3-1.143","4ul5","true"
