"rt","stimulus","key_press","type","part","color","position","trial_type","trial_index","time_elapsed","internal_node_id","subject","accuracy"
"578.2349999935832","<svg height=""672"" width=""1486""><rect height=""67.2"" width=""67.2""y=""302.4""x=""371.5"" fill=""green""/></svg>","83","stim_present","training","green","left","html-keyboard-response","3","44149","0.0-2.0-0.0-1.0","x86j","true"
"468.155000009574","<svg height=""672"" width=""1486""><rect height=""67.2"" width=""67.2""y=""302.4""x=""709.4"" fill=""green""/></svg>","83","stim_present","training","green","middle","html-keyboard-response","5","45141","0.0-2.0-0.0-1.1","x86j","true"
"460.5250000022352","<svg height=""672"" width=""1486""><rect height=""67.2"" width=""67.2""y=""302.4""x=""371.5"" fill=""red""/></svg>","76","stim_present","training","red","left","html-keyboard-response","7","46112","0.0-2.0-0.0-1.2","x86j","true"
"380.1450000028126","<svg height=""672"" width=""1486""><rect height=""67.2"" width=""67.2""y=""302.4""x=""1114.5"" fill=""green""/></svg>","83","stim_present","training","green","right","html-keyboard-response","9","47006","0.0-2.0-0.0-1.3","x86j","true"
"343.0499999958556","<svg height=""672"" width=""1486""><rect height=""67.2"" width=""67.2""y=""302.4""x=""709.4"" fill=""red""/></svg>","83","stim_present","training","red","middle","html-keyboard-response","11","47857","0.0-2.0-0.0-1.4","x86j","false"
"677.4600000062492","<svg height=""672"" width=""1486""><rect height=""67.2"" width=""67.2""y=""302.4""x=""1114.5"" fill=""red""/></svg>","76","stim_present","training","red","right","html-keyboard-response","13","49046","0.0-2.0-0.0-1.5","x86j","true"
"442.0549999922514","<svg height=""672"" width=""1486""><rect height=""67.2"" width=""67.2""y=""302.4""x=""709.4"" fill=""red""/></svg>","76","stim_present","training","red","middle","html-keyboard-response","15","49993","0.0-2.0-0.0-1.6","x86j","true"
"478.05000000516884","<svg height=""672"" width=""1486""><rect height=""67.2"" width=""67.2""y=""302.4""x=""371.5"" fill=""red""/></svg>","76","stim_present","training","red","left","html-keyboard-response","17","50980","0.0-2.0-0.0-1.7","x86j","true"
"412.5699999858625","<svg height=""672"" width=""1486""><rect height=""67.2"" width=""67.2""y=""302.4""x=""1114.5"" fill=""red""/></svg>","76","stim_present","training","red","right","html-keyboard-response","19","51897","0.0-2.0-0.0-1.8","x86j","true"
"380.1300000050105","<svg height=""672"" width=""1486""><rect height=""67.2"" width=""67.2""y=""302.4""x=""709.4"" fill=""green""/></svg>","83","stim_present","training","green","middle","html-keyboard-response","21","52781","0.0-2.0-0.0-1.9","x86j","true"
"345.39499998209067","<svg height=""672"" width=""1486""><rect height=""67.2"" width=""67.2""y=""302.4""x=""371.5"" fill=""green""/></svg>","83","stim_present","training","green","left","html-keyboard-response","23","53638","0.0-2.0-0.0-1.10","x86j","true"
"377.8199999942444","<svg height=""672"" width=""1486""><rect height=""67.2"" width=""67.2""y=""302.4""x=""1114.5"" fill=""green""/></svg>","83","stim_present","training","green","right","html-keyboard-response","25","54532","0.0-2.0-0.0-1.11","x86j","true"
"485.92499998630956","<svg height=""672"" width=""1486""><rect height=""67.2"" width=""67.2""y=""302.4""x=""709.4"" fill=""red""/></svg>","76","stim_present","test","red","middle","html-keyboard-response","28","63903","0.0-3.0-0.0-1.0","x86j","true"
"380.32500000554137","<svg height=""672"" width=""1486""><rect height=""67.2"" width=""67.2""y=""302.4""x=""371.5"" fill=""red""/></svg>","76","stim_present","test","red","left","html-keyboard-response","30","64788","0.0-3.0-0.0-1.1","x86j","true"
"340.4000000155065","<svg height=""672"" width=""1486""><rect height=""67.2"" width=""67.2""y=""302.4""x=""1114.5"" fill=""green""/></svg>","83","stim_present","test","green","right","html-keyboard-response","32","65644","0.0-3.0-0.0-1.2","x86j","true"
"361.2000000139233","<svg height=""672"" width=""1486""><rect height=""67.2"" width=""67.2""y=""302.4""x=""709.4"" fill=""green""/></svg>","83","stim_present","test","green","middle","html-keyboard-response","34","66510","0.0-3.0-0.0-1.3","x86j","true"
"383.0000000016298","<svg height=""672"" width=""1486""><rect height=""67.2"" width=""67.2""y=""302.4""x=""1114.5"" fill=""red""/></svg>","76","stim_present","test","red","right","html-keyboard-response","36","67402","0.0-3.0-0.0-1.4","x86j","true"
"323.50999998743646","<svg height=""672"" width=""1486""><rect height=""67.2"" width=""67.2""y=""302.4""x=""371.5"" fill=""green""/></svg>","83","stim_present","test","green","left","html-keyboard-response","38","68239","0.0-3.0-0.0-1.5","x86j","true"
"318.6799999966752","<svg height=""672"" width=""1486""><rect height=""67.2"" width=""67.2""y=""302.4""x=""371.5"" fill=""green""/></svg>","83","stim_present","test","green","left","html-keyboard-response","40","69067","0.0-3.0-0.0-1.6","x86j","true"
"359.0950000216253","<svg height=""672"" width=""1486""><rect height=""67.2"" width=""67.2""y=""302.4""x=""709.4"" fill=""red""/></svg>","76","stim_present","test","red","middle","html-keyboard-response","42","69937","0.0-3.0-0.0-1.7","x86j","true"
"322.3050000087824","<svg height=""672"" width=""1486""><rect height=""67.2"" width=""67.2""y=""302.4""x=""709.4"" fill=""green""/></svg>","83","stim_present","test","green","middle","html-keyboard-response","44","70761","0.0-3.0-0.0-1.8","x86j","true"
"377.1050000214018","<svg height=""672"" width=""1486""><rect height=""67.2"" width=""67.2""y=""302.4""x=""1114.5"" fill=""green""/></svg>","83","stim_present","test","green","right","html-keyboard-response","46","71643","0.0-3.0-0.0-1.9","x86j","true"
"455.9749999898486","<svg height=""672"" width=""1486""><rect height=""67.2"" width=""67.2""y=""302.4""x=""1114.5"" fill=""red""/></svg>","76","stim_present","test","red","right","html-keyboard-response","48","72605","0.0-3.0-0.0-1.10","x86j","true"
"427.1650000009686","<svg height=""672"" width=""1486""><rect height=""67.2"" width=""67.2""y=""302.4""x=""371.5"" fill=""red""/></svg>","76","stim_present","test","red","left","html-keyboard-response","50","73542","0.0-3.0-0.0-1.11","x86j","true"
"360.25499997776933","<svg height=""672"" width=""1486""><rect height=""67.2"" width=""67.2""y=""302.4""x=""1114.5"" fill=""red""/></svg>","76","stim_present","test","red","right","html-keyboard-response","52","74408","0.0-3.0-0.0-1.12","x86j","true"
"380.5300000240095","<svg height=""672"" width=""1486""><rect height=""67.2"" width=""67.2""y=""302.4""x=""371.5"" fill=""red""/></svg>","76","stim_present","test","red","left","html-keyboard-response","54","75295","0.0-3.0-0.0-1.13","x86j","true"
"329.64999999967404","<svg height=""672"" width=""1486""><rect height=""67.2"" width=""67.2""y=""302.4""x=""709.4"" fill=""red""/></svg>","76","stim_present","test","red","middle","html-keyboard-response","56","76128","0.0-3.0-0.0-1.14","x86j","true"
"367.965000012191","<svg height=""672"" width=""1486""><rect height=""67.2"" width=""67.2""y=""302.4""x=""709.4"" fill=""green""/></svg>","83","stim_present","test","green","middle","html-keyboard-response","58","77010","0.0-3.0-0.0-1.15","x86j","true"
"334.340000001248","<svg height=""672"" width=""1486""><rect height=""67.2"" width=""67.2""y=""302.4""x=""371.5"" fill=""green""/></svg>","83","stim_present","test","green","left","html-keyboard-response","60","77849","0.0-3.0-0.0-1.16","x86j","true"
"390.0900000007823","<svg height=""672"" width=""1486""><rect height=""67.2"" width=""67.2""y=""302.4""x=""1114.5"" fill=""green""/></svg>","83","stim_present","test","green","right","html-keyboard-response","62","78745","0.0-3.0-0.0-1.17","x86j","true"
"294.8399999877438","<svg height=""672"" width=""1486""><rect height=""67.2"" width=""67.2""y=""302.4""x=""371.5"" fill=""green""/></svg>","83","stim_present","test","green","left","html-keyboard-response","64","79550","0.0-3.0-0.0-1.18","x86j","true"
"345.9149999835063","<svg height=""672"" width=""1486""><rect height=""67.2"" width=""67.2""y=""302.4""x=""1114.5"" fill=""red""/></svg>","76","stim_present","test","red","right","html-keyboard-response","66","80401","0.0-3.0-0.0-1.19","x86j","true"
"341.7149999877438","<svg height=""672"" width=""1486""><rect height=""67.2"" width=""67.2""y=""302.4""x=""1114.5"" fill=""green""/></svg>","76","stim_present","test","green","right","html-keyboard-response","68","81261","0.0-3.0-0.0-1.20","x86j","false"
"395.250000001397","<svg height=""672"" width=""1486""><rect height=""67.2"" width=""67.2""y=""302.4""x=""709.4"" fill=""green""/></svg>","83","stim_present","test","green","middle","html-keyboard-response","70","82159","0.0-3.0-0.0-1.21","x86j","true"
"376.00500002736226","<svg height=""672"" width=""1486""><rect height=""67.2"" width=""67.2""y=""302.4""x=""709.4"" fill=""red""/></svg>","76","stim_present","test","red","middle","html-keyboard-response","72","83040","0.0-3.0-0.0-1.22","x86j","true"
"394.7150000021793","<svg height=""672"" width=""1486""><rect height=""67.2"" width=""67.2""y=""302.4""x=""371.5"" fill=""red""/></svg>","76","stim_present","test","red","left","html-keyboard-response","74","83942","0.0-3.0-0.0-1.23","x86j","true"
"346.92000001086853","<svg height=""672"" width=""1486""><rect height=""67.2"" width=""67.2""y=""302.4""x=""709.4"" fill=""red""/></svg>","76","stim_present","test","red","middle","html-keyboard-response","76","84798","0.0-3.0-0.0-1.24","x86j","true"
"312.37500000861473","<svg height=""672"" width=""1486""><rect height=""67.2"" width=""67.2""y=""302.4""x=""371.5"" fill=""red""/></svg>","76","stim_present","test","red","left","html-keyboard-response","78","85626","0.0-3.0-0.0-1.25","x86j","true"
"326.5299999911804","<svg height=""672"" width=""1486""><rect height=""67.2"" width=""67.2""y=""302.4""x=""709.4"" fill=""green""/></svg>","76","stim_present","test","green","middle","html-keyboard-response","80","86457","0.0-3.0-0.0-1.26","x86j","false"
"475.494999991497","<svg height=""672"" width=""1486""><rect height=""67.2"" width=""67.2""y=""302.4""x=""1114.5"" fill=""green""/></svg>","83","stim_present","test","green","right","html-keyboard-response","82","87447","0.0-3.0-0.0-1.27","x86j","true"
"421.28999999840744","<svg height=""672"" width=""1486""><rect height=""67.2"" width=""67.2""y=""302.4""x=""1114.5"" fill=""red""/></svg>","76","stim_present","test","red","right","html-keyboard-response","84","88384","0.0-3.0-0.0-1.28","x86j","true"
"326.4999999955762","<svg height=""672"" width=""1486""><rect height=""67.2"" width=""67.2""y=""302.4""x=""371.5"" fill=""green""/></svg>","83","stim_present","test","green","left","html-keyboard-response","86","89223","0.0-3.0-0.0-1.29","x86j","true"
"286.75500000827014","<svg height=""672"" width=""1486""><rect height=""67.2"" width=""67.2""y=""302.4""x=""371.5"" fill=""green""/></svg>","83","stim_present","test","green","left","html-keyboard-response","88","90025","0.0-3.0-0.0-1.30","x86j","true"
"369.26500001573004","<svg height=""672"" width=""1486""><rect height=""67.2"" width=""67.2""y=""302.4""x=""1114.5"" fill=""red""/></svg>","76","stim_present","test","red","right","html-keyboard-response","90","90903","0.0-3.0-0.0-1.31","x86j","true"
"425.23000002256595","<svg height=""672"" width=""1486""><rect height=""67.2"" width=""67.2""y=""302.4""x=""709.4"" fill=""green""/></svg>","83","stim_present","test","green","middle","html-keyboard-response","92","91837","0.0-3.0-0.0-1.32","x86j","true"
"441.9950000010431","<svg height=""672"" width=""1486""><rect height=""67.2"" width=""67.2""y=""302.4""x=""709.4"" fill=""red""/></svg>","76","stim_present","test","red","middle","html-keyboard-response","94","92792","0.0-3.0-0.0-1.33","x86j","true"
"390.0900000007823","<svg height=""672"" width=""1486""><rect height=""67.2"" width=""67.2""y=""302.4""x=""1114.5"" fill=""green""/></svg>","83","stim_present","test","green","right","html-keyboard-response","96","93686","0.0-3.0-0.0-1.34","x86j","true"
"398.33500000531785","<svg height=""672"" width=""1486""><rect height=""67.2"" width=""67.2""y=""302.4""x=""371.5"" fill=""red""/></svg>","76","stim_present","test","red","left","html-keyboard-response","98","94588","0.0-3.0-0.0-1.35","x86j","true"
"357.73999997763894","<svg height=""672"" width=""1486""><rect height=""67.2"" width=""67.2""y=""302.4""x=""709.4"" fill=""green""/></svg>","83","stim_present","test","green","middle","html-keyboard-response","101","101029","0.0-3.0-0.1-1.36","x86j","true"
"375.2050000184681","<svg height=""672"" width=""1486""><rect height=""67.2"" width=""67.2""y=""302.4""x=""1114.5"" fill=""green""/></svg>","83","stim_present","test","green","right","html-keyboard-response","103","101915","0.0-3.0-0.1-1.37","x86j","true"
"376.91500000073574","<svg height=""672"" width=""1486""><rect height=""67.2"" width=""67.2""y=""302.4""x=""371.5"" fill=""red""/></svg>","76","stim_present","test","red","left","html-keyboard-response","105","102798","0.0-3.0-0.1-1.38","x86j","true"
"333.31499999621883","<svg height=""672"" width=""1486""><rect height=""67.2"" width=""67.2""y=""302.4""x=""709.4"" fill=""red""/></svg>","83","stim_present","test","red","middle","html-keyboard-response","107","103648","0.0-3.0-0.1-1.39","x86j","false"
"528.3000000054017","<svg height=""672"" width=""1486""><rect height=""67.2"" width=""67.2""y=""302.4""x=""1114.5"" fill=""red""/></svg>","76","stim_present","test","red","right","html-keyboard-response","109","104689","0.0-3.0-0.1-1.40","x86j","true"
"450.32499998342246","<svg height=""672"" width=""1486""><rect height=""67.2"" width=""67.2""y=""302.4""x=""371.5"" fill=""green""/></svg>","83","stim_present","test","green","left","html-keyboard-response","111","105645","0.0-3.0-0.1-1.41","x86j","true"
"317.7250000007916","<svg height=""672"" width=""1486""><rect height=""67.2"" width=""67.2""y=""302.4""x=""371.5"" fill=""green""/></svg>","83","stim_present","test","green","left","html-keyboard-response","113","106466","0.0-3.0-0.1-1.42","x86j","true"
"366.49999997462146","<svg height=""672"" width=""1486""><rect height=""67.2"" width=""67.2""y=""302.4""x=""709.4"" fill=""red""/></svg>","76","stim_present","test","red","middle","html-keyboard-response","115","107337","0.0-3.0-0.1-1.43","x86j","true"
"377.28499999502674","<svg height=""672"" width=""1486""><rect height=""67.2"" width=""67.2""y=""302.4""x=""371.5"" fill=""red""/></svg>","76","stim_present","test","red","left","html-keyboard-response","117","108221","0.0-3.0-0.1-1.44","x86j","true"
"359.3200000177603","<svg height=""672"" width=""1486""><rect height=""67.2"" width=""67.2""y=""302.4""x=""709.4"" fill=""green""/></svg>","83","stim_present","test","green","middle","html-keyboard-response","119","109086","0.0-3.0-0.1-1.45","x86j","true"
"366.25500000081956","<svg height=""672"" width=""1486""><rect height=""67.2"" width=""67.2""y=""302.4""x=""1114.5"" fill=""green""/></svg>","83","stim_present","test","green","right","html-keyboard-response","121","109960","0.0-3.0-0.1-1.46","x86j","true"
"450.63499998650514","<svg height=""672"" width=""1486""><rect height=""67.2"" width=""67.2""y=""302.4""x=""1114.5"" fill=""red""/></svg>","76","stim_present","test","red","right","html-keyboard-response","123","110921","0.0-3.0-0.1-1.47","x86j","true"
"463.6049999971874","<svg height=""672"" width=""1486""><rect height=""67.2"" width=""67.2""y=""302.4""x=""709.4"" fill=""green""/></svg>","83","stim_present","test","green","middle","html-keyboard-response","125","111898","0.0-3.0-0.1-1.48","x86j","true"
"434.64499997207895","<svg height=""672"" width=""1486""><rect height=""67.2"" width=""67.2""y=""302.4""x=""1114.5"" fill=""red""/></svg>","76","stim_present","test","red","right","html-keyboard-response","127","112847","0.0-3.0-0.1-1.49","x86j","true"
"403.14500001841225","<svg height=""672"" width=""1486""><rect height=""67.2"" width=""67.2""y=""302.4""x=""371.5"" fill=""red""/></svg>","76","stim_present","test","red","left","html-keyboard-response","129","113758","0.0-3.0-0.1-1.50","x86j","true"
"320.350000023609","<svg height=""672"" width=""1486""><rect height=""67.2"" width=""67.2""y=""302.4""x=""709.4"" fill=""red""/></svg>","76","stim_present","test","red","middle","html-keyboard-response","131","114584","0.0-3.0-0.1-1.51","x86j","true"
"280.25500001967885","<svg height=""672"" width=""1486""><rect height=""67.2"" width=""67.2""y=""302.4""x=""371.5"" fill=""green""/></svg>","83","stim_present","test","green","left","html-keyboard-response","133","115373","0.0-3.0-0.1-1.52","x86j","true"
"384.1250000114087","<svg height=""672"" width=""1486""><rect height=""67.2"" width=""67.2""y=""302.4""x=""1114.5"" fill=""green""/></svg>","83","stim_present","test","green","right","html-keyboard-response","135","116264","0.0-3.0-0.1-1.53","x86j","true"
"375.8650000090711","<svg height=""672"" width=""1486""><rect height=""67.2"" width=""67.2""y=""302.4""x=""371.5"" fill=""red""/></svg>","76","stim_present","test","red","left","html-keyboard-response","137","117154","0.0-3.0-0.1-1.54","x86j","true"
"317.9250000102911","<svg height=""672"" width=""1486""><rect height=""67.2"" width=""67.2""y=""302.4""x=""709.4"" fill=""red""/></svg>","76","stim_present","test","red","middle","html-keyboard-response","139","117982","0.0-3.0-0.1-1.55","x86j","true"
"407.2100000048522","<svg height=""672"" width=""1486""><rect height=""67.2"" width=""67.2""y=""302.4""x=""1114.5"" fill=""green""/></svg>","83","stim_present","test","green","right","html-keyboard-response","141","118900","0.0-3.0-0.1-1.56","x86j","true"
"385.00999999814667","<svg height=""672"" width=""1486""><rect height=""67.2"" width=""67.2""y=""302.4""x=""709.4"" fill=""green""/></svg>","83","stim_present","test","green","middle","html-keyboard-response","143","119788","0.0-3.0-0.1-1.57","x86j","true"
"405.92999997898005","<svg height=""672"" width=""1486""><rect height=""67.2"" width=""67.2""y=""302.4""x=""1114.5"" fill=""red""/></svg>","83","stim_present","test","red","right","html-keyboard-response","145","120704","0.0-3.0-0.1-1.58","x86j","false"
"337.52000000094995","<svg height=""672"" width=""1486""><rect height=""67.2"" width=""67.2""y=""302.4""x=""371.5"" fill=""green""/></svg>","83","stim_present","test","green","left","html-keyboard-response","147","121555","0.0-3.0-0.1-1.59","x86j","true"
"332.124999986263","<svg height=""672"" width=""1486""><rect height=""67.2"" width=""67.2""y=""302.4""x=""709.4"" fill=""red""/></svg>","76","stim_present","test","red","middle","html-keyboard-response","149","122391","0.0-3.0-0.1-1.60","x86j","true"
"359.83000000123866","<svg height=""672"" width=""1486""><rect height=""67.2"" width=""67.2""y=""302.4""x=""709.4"" fill=""green""/></svg>","76","stim_present","test","green","middle","html-keyboard-response","151","123269","0.0-3.0-0.1-1.61","x86j","false"
"393.884999997681","<svg height=""672"" width=""1486""><rect height=""67.2"" width=""67.2""y=""302.4""x=""371.5"" fill=""green""/></svg>","83","stim_present","test","green","left","html-keyboard-response","153","124172","0.0-3.0-0.1-1.62","x86j","true"
"421.57000000588596","<svg height=""672"" width=""1486""><rect height=""67.2"" width=""67.2""y=""302.4""x=""1114.5"" fill=""green""/></svg>","83","stim_present","test","green","right","html-keyboard-response","155","125096","0.0-3.0-0.1-1.63","x86j","true"
"455.87499998509884","<svg height=""672"" width=""1486""><rect height=""67.2"" width=""67.2""y=""302.4""x=""1114.5"" fill=""red""/></svg>","76","stim_present","test","red","right","html-keyboard-response","157","126064","0.0-3.0-0.1-1.64","x86j","true"
"395.83999998285435","<svg height=""672"" width=""1486""><rect height=""67.2"" width=""67.2""y=""302.4""x=""371.5"" fill=""red""/></svg>","76","stim_present","test","red","left","html-keyboard-response","159","126974","0.0-3.0-0.1-1.65","x86j","true"
"333.63499998813495","<svg height=""672"" width=""1486""><rect height=""67.2"" width=""67.2""y=""302.4""x=""371.5"" fill=""red""/></svg>","76","stim_present","test","red","left","html-keyboard-response","161","127826","0.0-3.0-0.1-1.66","x86j","true"
"354.2799999995623","<svg height=""672"" width=""1486""><rect height=""67.2"" width=""67.2""y=""302.4""x=""1114.5"" fill=""red""/></svg>","76","stim_present","test","red","right","html-keyboard-response","163","128696","0.0-3.0-0.1-1.67","x86j","true"
"357.670000026701","<svg height=""672"" width=""1486""><rect height=""67.2"" width=""67.2""y=""302.4""x=""371.5"" fill=""green""/></svg>","83","stim_present","test","green","left","html-keyboard-response","165","129561","0.0-3.0-0.1-1.68","x86j","true"
"301.0350000113249","<svg height=""672"" width=""1486""><rect height=""67.2"" width=""67.2""y=""302.4""x=""1114.5"" fill=""green""/></svg>","83","stim_present","test","green","right","html-keyboard-response","167","130376","0.0-3.0-0.1-1.69","x86j","true"
"405.174999992596","<svg height=""672"" width=""1486""><rect height=""67.2"" width=""67.2""y=""302.4""x=""709.4"" fill=""red""/></svg>","76","stim_present","test","red","middle","html-keyboard-response","169","131296","0.0-3.0-0.1-1.70","x86j","true"
"405.2300000039395","<svg height=""672"" width=""1486""><rect height=""67.2"" width=""67.2""y=""302.4""x=""709.4"" fill=""green""/></svg>","83","stim_present","test","green","middle","html-keyboard-response","171","132219","0.0-3.0-0.1-1.71","x86j","true"
"453.48500000545755","<svg height=""672"" width=""1486""><rect height=""67.2"" width=""67.2""y=""302.4""x=""709.4"" fill=""red""/></svg>","76","stim_present","test","red","middle","html-keyboard-response","174","139646","0.0-3.0-0.2-1.72","x86j","true"
"261.224999994738","<svg height=""672"" width=""1486""><rect height=""67.2"" width=""67.2""y=""302.4""x=""371.5"" fill=""red""/></svg>","83","stim_present","test","red","left","html-keyboard-response","176","140418","0.0-3.0-0.2-1.73","x86j","false"
"469.3949999928009","<svg height=""672"" width=""1486""><rect height=""67.2"" width=""67.2""y=""302.4""x=""709.4"" fill=""green""/></svg>","83","stim_present","test","green","middle","html-keyboard-response","178","141397","0.0-3.0-0.2-1.74","x86j","true"
"356.9900000002235","<svg height=""672"" width=""1486""><rect height=""67.2"" width=""67.2""y=""302.4""x=""371.5"" fill=""green""/></svg>","83","stim_present","test","green","left","html-keyboard-response","180","142264","0.0-3.0-0.2-1.75","x86j","true"
"366.49000001489185","<svg height=""672"" width=""1486""><rect height=""67.2"" width=""67.2""y=""302.4""x=""1114.5"" fill=""green""/></svg>","83","stim_present","test","green","right","html-keyboard-response","182","143140","0.0-3.0-0.2-1.76","x86j","true"
"326.33999999961816","<svg height=""672"" width=""1486""><rect height=""67.2"" width=""67.2""y=""302.4""x=""1114.5"" fill=""red""/></svg>","83","stim_present","test","red","right","html-keyboard-response","184","143983","0.0-3.0-0.2-1.77","x86j","false"
"432.0749999897089","<svg height=""672"" width=""1486""><rect height=""67.2"" width=""67.2""y=""302.4""x=""371.5"" fill=""red""/></svg>","76","stim_present","test","red","left","html-keyboard-response","186","144926","0.0-3.0-0.2-1.78","x86j","true"
"436.8899999826681","<svg height=""672"" width=""1486""><rect height=""67.2"" width=""67.2""y=""302.4""x=""1114.5"" fill=""green""/></svg>","83","stim_present","test","green","right","html-keyboard-response","188","145877","0.0-3.0-0.2-1.79","x86j","true"
"350.5799999984447","<svg height=""672"" width=""1486""><rect height=""67.2"" width=""67.2""y=""302.4""x=""709.4"" fill=""green""/></svg>","83","stim_present","test","green","middle","html-keyboard-response","190","146740","0.0-3.0-0.2-1.80","x86j","true"
"337.88999999524094","<svg height=""672"" width=""1486""><rect height=""67.2"" width=""67.2""y=""302.4""x=""709.4"" fill=""red""/></svg>","83","stim_present","test","red","middle","html-keyboard-response","192","147590","0.0-3.0-0.2-1.81","x86j","false"
"440.0599999935366","<svg height=""672"" width=""1486""><rect height=""67.2"" width=""67.2""y=""302.4""x=""1114.5"" fill=""red""/></svg>","76","stim_present","test","red","right","html-keyboard-response","194","148546","0.0-3.0-0.2-1.82","x86j","true"
"402.6599999924656","<svg height=""672"" width=""1486""><rect height=""67.2"" width=""67.2""y=""302.4""x=""371.5"" fill=""green""/></svg>","83","stim_present","test","green","left","html-keyboard-response","196","149462","0.0-3.0-0.2-1.83","x86j","true"
"666.0049999773037","<svg height=""672"" width=""1486""><rect height=""67.2"" width=""67.2""y=""302.4""x=""371.5"" fill=""red""/></svg>","76","stim_present","test","red","left","html-keyboard-response","198","150638","0.0-3.0-0.2-1.84","x86j","true"
"434.37500001164153","<svg height=""672"" width=""1486""><rect height=""67.2"" width=""67.2""y=""302.4""x=""709.4"" fill=""green""/></svg>","83","stim_present","test","green","middle","html-keyboard-response","200","151590","0.0-3.0-0.2-1.85","x86j","true"
"542.4550000170711","<svg height=""672"" width=""1486""><rect height=""67.2"" width=""67.2""y=""302.4""x=""1114.5"" fill=""green""/></svg>","83","stim_present","test","green","right","html-keyboard-response","202","152643","0.0-3.0-0.2-1.86","x86j","true"
"329.3249999987893","<svg height=""672"" width=""1486""><rect height=""67.2"" width=""67.2""y=""302.4""x=""371.5"" fill=""green""/></svg>","83","stim_present","test","green","left","html-keyboard-response","204","153489","0.0-3.0-0.2-1.87","x86j","true"
"291.90499999094754","<svg height=""672"" width=""1486""><rect height=""67.2"" width=""67.2""y=""302.4""x=""709.4"" fill=""red""/></svg>","76","stim_present","test","red","middle","html-keyboard-response","206","154293","0.0-3.0-0.2-1.88","x86j","true"
"336.94499998819083","<svg height=""672"" width=""1486""><rect height=""67.2"" width=""67.2""y=""302.4""x=""1114.5"" fill=""red""/></svg>","76","stim_present","test","red","right","html-keyboard-response","208","155146","0.0-3.0-0.2-1.89","x86j","true"
"373.699999996461","<svg height=""672"" width=""1486""><rect height=""67.2"" width=""67.2""y=""302.4""x=""371.5"" fill=""green""/></svg>","83","stim_present","test","green","left","html-keyboard-response","210","156028","0.0-3.0-0.2-1.90","x86j","true"
"351.1399999842979","<svg height=""672"" width=""1486""><rect height=""67.2"" width=""67.2""y=""302.4""x=""1114.5"" fill=""red""/></svg>","76","stim_present","test","red","right","html-keyboard-response","212","156884","0.0-3.0-0.2-1.91","x86j","true"
"418.584999977611","<svg height=""672"" width=""1486""><rect height=""67.2"" width=""67.2""y=""302.4""x=""709.4"" fill=""red""/></svg>","76","stim_present","test","red","middle","html-keyboard-response","214","157812","0.0-3.0-0.2-1.92","x86j","true"
"304.64499999652617","<svg height=""672"" width=""1486""><rect height=""67.2"" width=""67.2""y=""302.4""x=""371.5"" fill=""red""/></svg>","76","stim_present","test","red","left","html-keyboard-response","216","158626","0.0-3.0-0.2-1.93","x86j","true"
"362.2149999719113","<svg height=""672"" width=""1486""><rect height=""67.2"" width=""67.2""y=""302.4""x=""709.4"" fill=""green""/></svg>","83","stim_present","test","green","middle","html-keyboard-response","218","159500","0.0-3.0-0.2-1.94","x86j","true"
"345.9749999747146","<svg height=""672"" width=""1486""><rect height=""67.2"" width=""67.2""y=""302.4""x=""1114.5"" fill=""green""/></svg>","83","stim_present","test","green","right","html-keyboard-response","220","160350","0.0-3.0-0.2-1.95","x86j","true"
"380.4200000013225","<svg height=""672"" width=""1486""><rect height=""67.2"" width=""67.2""y=""302.4""x=""709.4"" fill=""red""/></svg>","76","stim_present","test","red","middle","html-keyboard-response","222","161238","0.0-3.0-0.2-1.96","x86j","true"
"372.97499997657724","<svg height=""672"" width=""1486""><rect height=""67.2"" width=""67.2""y=""302.4""x=""1114.5"" fill=""red""/></svg>","76","stim_present","test","red","right","html-keyboard-response","224","162122","0.0-3.0-0.2-1.97","x86j","true"
"261.5850000001956","<svg height=""672"" width=""1486""><rect height=""67.2"" width=""67.2""y=""302.4""x=""371.5"" fill=""red""/></svg>","83","stim_present","test","red","left","html-keyboard-response","226","162899","0.0-3.0-0.2-1.98","x86j","false"
"393.660000001546","<svg height=""672"" width=""1486""><rect height=""67.2"" width=""67.2""y=""302.4""x=""1114.5"" fill=""green""/></svg>","83","stim_present","test","green","right","html-keyboard-response","228","163797","0.0-3.0-0.2-1.99","x86j","true"
"479.3950000021141","<svg height=""672"" width=""1486""><rect height=""67.2"" width=""67.2""y=""302.4""x=""709.4"" fill=""green""/></svg>","83","stim_present","test","green","middle","html-keyboard-response","230","164783","0.0-3.0-0.2-1.100","x86j","true"
"305.39999998291023","<svg height=""672"" width=""1486""><rect height=""67.2"" width=""67.2""y=""302.4""x=""371.5"" fill=""green""/></svg>","83","stim_present","test","green","left","html-keyboard-response","232","165592","0.0-3.0-0.2-1.101","x86j","true"
"371.4200000104029","<svg height=""672"" width=""1486""><rect height=""67.2"" width=""67.2""y=""302.4""x=""1114.5"" fill=""red""/></svg>","76","stim_present","test","red","right","html-keyboard-response","234","166475","0.0-3.0-0.2-1.102","x86j","true"
"519.5499999972526","<svg height=""672"" width=""1486""><rect height=""67.2"" width=""67.2""y=""302.4""x=""709.4"" fill=""green""/></svg>","83","stim_present","test","green","middle","html-keyboard-response","236","167506","0.0-3.0-0.2-1.103","x86j","true"
"410.29999998863786","<svg height=""672"" width=""1486""><rect height=""67.2"" width=""67.2""y=""302.4""x=""709.4"" fill=""red""/></svg>","76","stim_present","test","red","middle","html-keyboard-response","238","168430","0.0-3.0-0.2-1.104","x86j","true"
"438.3350000134669","<svg height=""672"" width=""1486""><rect height=""67.2"" width=""67.2""y=""302.4""x=""1114.5"" fill=""green""/></svg>","83","stim_present","test","green","right","html-keyboard-response","240","169375","0.0-3.0-0.2-1.105","x86j","true"
"445.609999995213","<svg height=""672"" width=""1486""><rect height=""67.2"" width=""67.2""y=""302.4""x=""371.5"" fill=""red""/></svg>","76","stim_present","test","red","left","html-keyboard-response","242","170326","0.0-3.0-0.2-1.106","x86j","true"
"518.6150000081398","<svg height=""672"" width=""1486""><rect height=""67.2"" width=""67.2""y=""302.4""x=""371.5"" fill=""green""/></svg>","83","stim_present","test","green","left","html-keyboard-response","244","171347","0.0-3.0-0.2-1.107","x86j","true"
"421.6350000060629","<svg height=""672"" width=""1486""><rect height=""67.2"" width=""67.2""y=""302.4""x=""1114.5"" fill=""red""/></svg>","83","stim_present","test","red","right","html-keyboard-response","247","179558","0.0-3.0-0.3-1.108","x86j","false"
"456.20499999495223","<svg height=""672"" width=""1486""><rect height=""67.2"" width=""67.2""y=""302.4""x=""1114.5"" fill=""green""/></svg>","83","stim_present","test","green","right","html-keyboard-response","249","180525","0.0-3.0-0.3-1.109","x86j","true"
"539.8200000054203","<svg height=""672"" width=""1486""><rect height=""67.2"" width=""67.2""y=""302.4""x=""371.5"" fill=""red""/></svg>","76","stim_present","test","red","left","html-keyboard-response","251","181568","0.0-3.0-0.3-1.110","x86j","true"
"1177.3899999971036","<svg height=""672"" width=""1486""><rect height=""67.2"" width=""67.2""y=""302.4""x=""371.5"" fill=""green""/></svg>","83","stim_present","test","green","left","html-keyboard-response","253","183262","0.0-3.0-0.3-1.111","x86j","true"
"351.4849999919534","<svg height=""672"" width=""1486""><rect height=""67.2"" width=""67.2""y=""302.4""x=""709.4"" fill=""green""/></svg>","83","stim_present","test","green","middle","html-keyboard-response","255","184124","0.0-3.0-0.3-1.112","x86j","true"
"388.54000001447275","<svg height=""672"" width=""1486""><rect height=""67.2"" width=""67.2""y=""302.4""x=""709.4"" fill=""red""/></svg>","76","stim_present","test","red","middle","html-keyboard-response","257","185023","0.0-3.0-0.3-1.113","x86j","true"
"362.859999993816","<svg height=""672"" width=""1486""><rect height=""67.2"" width=""67.2""y=""302.4""x=""1114.5"" fill=""green""/></svg>","83","stim_present","test","green","right","html-keyboard-response","259","185900","0.0-3.0-0.3-1.114","x86j","true"
"388.11999998870306","<svg height=""672"" width=""1486""><rect height=""67.2"" width=""67.2""y=""302.4""x=""709.4"" fill=""red""/></svg>","76","stim_present","test","red","middle","html-keyboard-response","261","186806","0.0-3.0-0.3-1.115","x86j","true"
"423.1100000033621","<svg height=""672"" width=""1486""><rect height=""67.2"" width=""67.2""y=""302.4""x=""1114.5"" fill=""red""/></svg>","76","stim_present","test","red","right","html-keyboard-response","263","187734","0.0-3.0-0.3-1.116","x86j","true"
"467.6350000081584","<svg height=""672"" width=""1486""><rect height=""67.2"" width=""67.2""y=""302.4""x=""371.5"" fill=""red""/></svg>","76","stim_present","test","red","left","html-keyboard-response","265","188712","0.0-3.0-0.3-1.117","x86j","true"
"345.98499999265186","<svg height=""672"" width=""1486""><rect height=""67.2"" width=""67.2""y=""302.4""x=""709.4"" fill=""green""/></svg>","83","stim_present","test","green","middle","html-keyboard-response","267","189572","0.0-3.0-0.3-1.118","x86j","true"
"305.5250000033993","<svg height=""672"" width=""1486""><rect height=""67.2"" width=""67.2""y=""302.4""x=""371.5"" fill=""green""/></svg>","83","stim_present","test","green","left","html-keyboard-response","269","190389","0.0-3.0-0.3-1.119","x86j","true"
"351.16500000003725","<svg height=""672"" width=""1486""><rect height=""67.2"" width=""67.2""y=""302.4""x=""371.5"" fill=""green""/></svg>","83","stim_present","test","green","left","html-keyboard-response","271","191251","0.0-3.0-0.3-1.120","x86j","true"
"403.8449999934528","<svg height=""672"" width=""1486""><rect height=""67.2"" width=""67.2""y=""302.4""x=""1114.5"" fill=""green""/></svg>","83","stim_present","test","green","right","html-keyboard-response","273","192157","0.0-3.0-0.3-1.121","x86j","true"
"308.1850000016857","<svg height=""672"" width=""1486""><rect height=""67.2"" width=""67.2""y=""302.4""x=""709.4"" fill=""green""/></svg>","83","stim_present","test","green","middle","html-keyboard-response","275","192971","0.0-3.0-0.3-1.122","x86j","true"
"415.1699999929406","<svg height=""672"" width=""1486""><rect height=""67.2"" width=""67.2""y=""302.4""x=""371.5"" fill=""red""/></svg>","76","stim_present","test","red","left","html-keyboard-response","277","193890","0.0-3.0-0.3-1.123","x86j","true"
"418.0049999849871","<svg height=""672"" width=""1486""><rect height=""67.2"" width=""67.2""y=""302.4""x=""709.4"" fill=""red""/></svg>","76","stim_present","test","red","middle","html-keyboard-response","279","194818","0.0-3.0-0.3-1.124","x86j","true"
"315.1899999938905","<svg height=""672"" width=""1486""><rect height=""67.2"" width=""67.2""y=""302.4""x=""1114.5"" fill=""red""/></svg>","76","stim_present","test","red","right","html-keyboard-response","281","195635","0.0-3.0-0.3-1.125","x86j","true"
"385.0000000093132","<svg height=""672"" width=""1486""><rect height=""67.2"" width=""67.2""y=""302.4""x=""371.5"" fill=""red""/></svg>","76","stim_present","test","red","left","html-keyboard-response","283","196535","0.0-3.0-0.3-1.126","x86j","true"
"383.510000014212","<svg height=""672"" width=""1486""><rect height=""67.2"" width=""67.2""y=""302.4""x=""1114.5"" fill=""green""/></svg>","83","stim_present","test","green","right","html-keyboard-response","285","197421","0.0-3.0-0.3-1.127","x86j","true"
"511.11500000115484","<svg height=""672"" width=""1486""><rect height=""67.2"" width=""67.2""y=""302.4""x=""1114.5"" fill=""red""/></svg>","76","stim_present","test","red","right","html-keyboard-response","287","198439","0.0-3.0-0.3-1.128","x86j","true"
"370.49000000115484","<svg height=""672"" width=""1486""><rect height=""67.2"" width=""67.2""y=""302.4""x=""371.5"" fill=""green""/></svg>","83","stim_present","test","green","left","html-keyboard-response","289","199325","0.0-3.0-0.3-1.129","x86j","true"
"404.2300000146497","<svg height=""672"" width=""1486""><rect height=""67.2"" width=""67.2""y=""302.4""x=""709.4"" fill=""green""/></svg>","83","stim_present","test","green","middle","html-keyboard-response","291","200237","0.0-3.0-0.3-1.130","x86j","true"
"388.2400000002235","<svg height=""672"" width=""1486""><rect height=""67.2"" width=""67.2""y=""302.4""x=""709.4"" fill=""red""/></svg>","83","stim_present","test","red","middle","html-keyboard-response","293","201138","0.0-3.0-0.3-1.131","x86j","false"
"397.5549999740906","<svg height=""672"" width=""1486""><rect height=""67.2"" width=""67.2""y=""302.4""x=""371.5"" fill=""green""/></svg>","83","stim_present","test","green","left","html-keyboard-response","295","202051","0.0-3.0-0.3-1.132","x86j","true"
"328.9799999911338","<svg height=""672"" width=""1486""><rect height=""67.2"" width=""67.2""y=""302.4""x=""1114.5"" fill=""red""/></svg>","76","stim_present","test","red","right","html-keyboard-response","297","202895","0.0-3.0-0.3-1.133","x86j","true"
"495.63500002841465","<svg height=""672"" width=""1486""><rect height=""67.2"" width=""67.2""y=""302.4""x=""1114.5"" fill=""green""/></svg>","83","stim_present","test","green","right","html-keyboard-response","299","203894","0.0-3.0-0.3-1.134","x86j","true"
"432.06000002101064","<svg height=""672"" width=""1486""><rect height=""67.2"" width=""67.2""y=""302.4""x=""709.4"" fill=""red""/></svg>","76","stim_present","test","red","middle","html-keyboard-response","301","204830","0.0-3.0-0.3-1.135","x86j","true"
"448.87500000186265","<svg height=""672"" width=""1486""><rect height=""67.2"" width=""67.2""y=""302.4""x=""371.5"" fill=""red""/></svg>","76","stim_present","test","red","left","html-keyboard-response","303","205797","0.0-3.0-0.3-1.136","x86j","true"
"375.8549999911338","<svg height=""672"" width=""1486""><rect height=""67.2"" width=""67.2""y=""302.4""x=""709.4"" fill=""green""/></svg>","83","stim_present","test","green","middle","html-keyboard-response","305","206691","0.0-3.0-0.3-1.137","x86j","true"
"665.1549999951385","<svg height=""672"" width=""1486""><rect height=""67.2"" width=""67.2""y=""302.4""x=""1114.5"" fill=""red""/></svg>","76","stim_present","test","red","right","html-keyboard-response","307","207860","0.0-3.0-0.3-1.138","x86j","true"
"477.454999985639","<svg height=""672"" width=""1486""><rect height=""67.2"" width=""67.2""y=""302.4""x=""1114.5"" fill=""green""/></svg>","83","stim_present","test","green","right","html-keyboard-response","309","208842","0.0-3.0-0.3-1.139","x86j","true"
"367.115000000922","<svg height=""672"" width=""1486""><rect height=""67.2"" width=""67.2""y=""302.4""x=""709.4"" fill=""green""/></svg>","83","stim_present","test","green","middle","html-keyboard-response","311","209715","0.0-3.0-0.3-1.140","x86j","true"
"492.31000000145286","<svg height=""672"" width=""1486""><rect height=""67.2"" width=""67.2""y=""302.4""x=""709.4"" fill=""red""/></svg>","76","stim_present","test","red","middle","html-keyboard-response","313","210723","0.0-3.0-0.3-1.141","x86j","true"
"384.83999998425134","<svg height=""672"" width=""1486""><rect height=""67.2"" width=""67.2""y=""302.4""x=""371.5"" fill=""red""/></svg>","76","stim_present","test","red","left","html-keyboard-response","315","211620","0.0-3.0-0.3-1.142","x86j","true"
"340.490000002319","<svg height=""672"" width=""1486""><rect height=""67.2"" width=""67.2""y=""302.4""x=""371.5"" fill=""green""/></svg>","83","stim_present","test","green","left","html-keyboard-response","317","212472","0.0-3.0-0.3-1.143","x86j","true"
