"rt","stimulus","key_press","type","part","color","position","trial_type","trial_index","time_elapsed","internal_node_id","subject","accuracy"
"1832.0350000066683","<svg height=""800"" width=""1657""><rect height=""80"" width=""80""y=""360""x=""788.5"" fill=""green""/></svg>","83","stim_present","training","green","middle","html-keyboard-response","3","1787049","0.0-2.0-0.0-1.0","0fte","true"
"524.3249999983236","<svg height=""800"" width=""1657""><rect height=""80"" width=""80""y=""360""x=""414.25"" fill=""red""/></svg>","76","stim_present","training","red","left","html-keyboard-response","5","1788078","0.0-2.0-0.0-1.1","0fte","true"
"553.8200000009965","<svg height=""800"" width=""1657""><rect height=""80"" width=""80""y=""360""x=""1242.75"" fill=""green""/></svg>","76","stim_present","training","green","right","html-keyboard-response","7","1789135","0.0-2.0-0.0-1.2","0fte","false"
"1143.785000000149","<svg height=""800"" width=""1657""><rect height=""80"" width=""80""y=""360""x=""1242.75"" fill=""red""/></svg>","83","stim_present","training","red","right","html-keyboard-response","9","1790781","0.0-2.0-0.0-1.3","0fte","false"
"2069.970000004163","<svg height=""800"" width=""1657""><rect height=""80"" width=""80""y=""360""x=""414.25"" fill=""green""/></svg>","76","stim_present","training","green","left","html-keyboard-response","11","1793355","0.0-2.0-0.0-1.4","0fte","false"
"729.2050000033341","<svg height=""800"" width=""1657""><rect height=""80"" width=""80""y=""360""x=""788.5"" fill=""red""/></svg>","83","stim_present","training","red","middle","html-keyboard-response","13","1794587","0.0-2.0-0.0-1.5","0fte","false"
"533.0350000003818","<svg height=""800"" width=""1657""><rect height=""80"" width=""80""y=""360""x=""414.25"" fill=""green""/></svg>","76","stim_present","training","green","left","html-keyboard-response","15","1795625","0.0-2.0-0.0-1.6","0fte","false"
"511.59000000194646","<svg height=""800"" width=""1657""><rect height=""80"" width=""80""y=""360""x=""788.5"" fill=""green""/></svg>","76","stim_present","training","green","middle","html-keyboard-response","17","1796639","0.0-2.0-0.0-1.7","0fte","false"
"407.974999994738","<svg height=""800"" width=""1657""><rect height=""80"" width=""80""y=""360""x=""1242.75"" fill=""green""/></svg>","76","stim_present","training","green","right","html-keyboard-response","19","1797550","0.0-2.0-0.0-1.8","0fte","false"
"544.8050000050571","<svg height=""800"" width=""1657""><rect height=""80"" width=""80""y=""360""x=""788.5"" fill=""red""/></svg>","83","stim_present","training","red","middle","html-keyboard-response","21","1798598","0.0-2.0-0.0-1.9","0fte","false"
"529.5149999947753","<svg height=""800"" width=""1657""><rect height=""80"" width=""80""y=""360""x=""414.25"" fill=""red""/></svg>","83","stim_present","training","red","left","html-keyboard-response","23","1799639","0.0-2.0-0.0-1.10","0fte","false"
"475.34499999904074","<svg height=""800"" width=""1657""><rect height=""80"" width=""80""y=""360""x=""1242.75"" fill=""red""/></svg>","83","stim_present","training","red","right","html-keyboard-response","25","1800618","0.0-2.0-0.0-1.11","0fte","false"
"499.9249999963213","<svg height=""800"" width=""1657""><rect height=""80"" width=""80""y=""360""x=""788.5"" fill=""green""/></svg>","83","stim_present","test","green","middle","html-keyboard-response","28","1810814","0.0-3.0-0.0-1.0","0fte","true"
"444.5800000028685","<svg height=""800"" width=""1657""><rect height=""80"" width=""80""y=""360""x=""414.25"" fill=""red""/></svg>","76","stim_present","test","red","left","html-keyboard-response","30","1811760","0.0-3.0-0.0-1.1","0fte","true"
"438.02500000293367","<svg height=""800"" width=""1657""><rect height=""80"" width=""80""y=""360""x=""414.25"" fill=""green""/></svg>","76","stim_present","test","green","left","html-keyboard-response","32","1812701","0.0-3.0-0.0-1.2","0fte","false"
"417.5699999977369","<svg height=""800"" width=""1657""><rect height=""80"" width=""80""y=""360""x=""1242.75"" fill=""green""/></svg>","76","stim_present","test","green","right","html-keyboard-response","34","1813623","0.0-3.0-0.0-1.3","0fte","false"
"395.05500000086613","<svg height=""800"" width=""1657""><rect height=""80"" width=""80""y=""360""x=""1242.75"" fill=""red""/></svg>","83","stim_present","test","red","right","html-keyboard-response","36","1814522","0.0-3.0-0.0-1.4","0fte","false"
"956.0049999998882","<svg height=""800"" width=""1657""><rect height=""80"" width=""80""y=""360""x=""788.5"" fill=""red""/></svg>","83","stim_present","test","red","middle","html-keyboard-response","38","1815981","0.0-3.0-0.0-1.5","0fte","false"
"558.7650000017602","<svg height=""800"" width=""1657""><rect height=""80"" width=""80""y=""360""x=""414.25"" fill=""green""/></svg>","83","stim_present","test","green","left","html-keyboard-response","40","1817042","0.0-3.0-0.0-1.6","0fte","true"
"441.02499999990687","<svg height=""800"" width=""1657""><rect height=""80"" width=""80""y=""360""x=""788.5"" fill=""green""/></svg>","83","stim_present","test","green","middle","html-keyboard-response","42","1817991","0.0-3.0-0.0-1.7","0fte","true"
"413.0950000034645","<svg height=""800"" width=""1657""><rect height=""80"" width=""80""y=""360""x=""1242.75"" fill=""green""/></svg>","83","stim_present","test","green","right","html-keyboard-response","44","1818908","0.0-3.0-0.0-1.8","0fte","true"
"652.5099999997765","<svg height=""800"" width=""1657""><rect height=""80"" width=""80""y=""360""x=""788.5"" fill=""red""/></svg>","76","stim_present","test","red","middle","html-keyboard-response","46","1820064","0.0-3.0-0.0-1.9","0fte","true"
"389.2699999997858","<svg height=""800"" width=""1657""><rect height=""80"" width=""80""y=""360""x=""1242.75"" fill=""red""/></svg>","76","stim_present","test","red","right","html-keyboard-response","48","1820955","0.0-3.0-0.0-1.10","0fte","true"
"377.0349999975879","<svg height=""800"" width=""1657""><rect height=""80"" width=""80""y=""360""x=""414.25"" fill=""red""/></svg>","76","stim_present","test","red","left","html-keyboard-response","50","1821834","0.0-3.0-0.0-1.11","0fte","true"
"368.99499999708496","<svg height=""800"" width=""1657""><rect height=""80"" width=""80""y=""360""x=""788.5"" fill=""red""/></svg>","76","stim_present","test","red","middle","html-keyboard-response","52","1822706","0.0-3.0-0.0-1.12","0fte","true"
"384.1749999993481","<svg height=""800"" width=""1657""><rect height=""80"" width=""80""y=""360""x=""1242.75"" fill=""red""/></svg>","76","stim_present","test","red","right","html-keyboard-response","54","1823594","0.0-3.0-0.0-1.13","0fte","true"
"494.9950000010431","<svg height=""800"" width=""1657""><rect height=""80"" width=""80""y=""360""x=""1242.75"" fill=""green""/></svg>","83","stim_present","test","green","right","html-keyboard-response","56","1824593","0.0-3.0-0.0-1.14","0fte","true"
"448.22999999462627","<svg height=""800"" width=""1657""><rect height=""80"" width=""80""y=""360""x=""414.25"" fill=""green""/></svg>","83","stim_present","test","green","left","html-keyboard-response","58","1825557","0.0-3.0-0.0-1.15","0fte","true"
"496.3300000017043","<svg height=""800"" width=""1657""><rect height=""80"" width=""80""y=""360""x=""414.25"" fill=""red""/></svg>","76","stim_present","test","red","left","html-keyboard-response","60","1826564","0.0-3.0-0.0-1.16","0fte","true"
"601.4250000007451","<svg height=""800"" width=""1657""><rect height=""80"" width=""80""y=""360""x=""788.5"" fill=""green""/></svg>","83","stim_present","test","green","middle","html-keyboard-response","62","1827672","0.0-3.0-0.0-1.17","0fte","true"
"590.4699999955483","<svg height=""800"" width=""1657""><rect height=""80"" width=""80""y=""360""x=""788.5"" fill=""green""/></svg>","83","stim_present","test","green","middle","html-keyboard-response","64","1828767","0.0-3.0-0.0-1.18","0fte","true"
"430.83499999926426","<svg height=""800"" width=""1657""><rect height=""80"" width=""80""y=""360""x=""1242.75"" fill=""red""/></svg>","76","stim_present","test","red","right","html-keyboard-response","66","1829700","0.0-3.0-0.0-1.19","0fte","true"
"310.5349999968894","<svg height=""800"" width=""1657""><rect height=""80"" width=""80""y=""360""x=""414.25"" fill=""red""/></svg>","83","stim_present","test","red","left","html-keyboard-response","68","1830515","0.0-3.0-0.0-1.20","0fte","false"
"410.11499999882653","<svg height=""800"" width=""1657""><rect height=""80"" width=""80""y=""360""x=""788.5"" fill=""red""/></svg>","76","stim_present","test","red","middle","html-keyboard-response","70","1831428","0.0-3.0-0.0-1.21","0fte","true"
"618.1550000037532","<svg height=""800"" width=""1657""><rect height=""80"" width=""80""y=""360""x=""1242.75"" fill=""green""/></svg>","83","stim_present","test","green","right","html-keyboard-response","72","1832548","0.0-3.0-0.0-1.22","0fte","true"
"409.6849999988917","<svg height=""800"" width=""1657""><rect height=""80"" width=""80""y=""360""x=""414.25"" fill=""green""/></svg>","83","stim_present","test","green","left","html-keyboard-response","74","1833461","0.0-3.0-0.0-1.23","0fte","true"
"478.1749999965541","<svg height=""800"" width=""1657""><rect height=""80"" width=""80""y=""360""x=""414.25"" fill=""red""/></svg>","76","stim_present","test","red","left","html-keyboard-response","76","1834443","0.0-3.0-0.0-1.24","0fte","true"
"492.77500000596046","<svg height=""800"" width=""1657""><rect height=""80"" width=""80""y=""360""x=""788.5"" fill=""red""/></svg>","83","stim_present","test","red","middle","html-keyboard-response","78","1835438","0.0-3.0-0.0-1.25","0fte","false"
"597.7800000037532","<svg height=""800"" width=""1657""><rect height=""80"" width=""80""y=""360""x=""414.25"" fill=""green""/></svg>","83","stim_present","test","green","left","html-keyboard-response","80","1836539","0.0-3.0-0.0-1.26","0fte","true"
"413.4300000006333","<svg height=""800"" width=""1657""><rect height=""80"" width=""80""y=""360""x=""1242.75"" fill=""green""/></svg>","83","stim_present","test","green","right","html-keyboard-response","82","1837456","0.0-3.0-0.0-1.27","0fte","true"
"363.0100000007078","<svg height=""800"" width=""1657""><rect height=""80"" width=""80""y=""360""x=""788.5"" fill=""green""/></svg>","83","stim_present","test","green","middle","html-keyboard-response","84","1838321","0.0-3.0-0.0-1.28","0fte","true"
"443.11000000010245","<svg height=""800"" width=""1657""><rect height=""80"" width=""80""y=""360""x=""1242.75"" fill=""red""/></svg>","76","stim_present","test","red","right","html-keyboard-response","86","1839268","0.0-3.0-0.0-1.29","0fte","true"
"422.5000000006985","<svg height=""800"" width=""1657""><rect height=""80"" width=""80""y=""360""x=""1242.75"" fill=""red""/></svg>","76","stim_present","test","red","right","html-keyboard-response","88","1840194","0.0-3.0-0.0-1.30","0fte","true"
"325.6099999998696","<svg height=""800"" width=""1657""><rect height=""80"" width=""80""y=""360""x=""414.25"" fill=""red""/></svg>","76","stim_present","test","red","left","html-keyboard-response","90","1841022","0.0-3.0-0.0-1.31","0fte","true"
"280.2849999933969","<svg height=""800"" width=""1657""><rect height=""80"" width=""80""y=""360""x=""788.5"" fill=""red""/></svg>","76","stim_present","test","red","middle","html-keyboard-response","92","1841805","0.0-3.0-0.0-1.32","0fte","true"
"439.02499999967404","<svg height=""800"" width=""1657""><rect height=""80"" width=""80""y=""360""x=""414.25"" fill=""green""/></svg>","83","stim_present","test","green","left","html-keyboard-response","94","1842746","0.0-3.0-0.0-1.33","0fte","true"
"384.0150000031572","<svg height=""800"" width=""1657""><rect height=""80"" width=""80""y=""360""x=""1242.75"" fill=""green""/></svg>","83","stim_present","test","green","right","html-keyboard-response","96","1843632","0.0-3.0-0.0-1.34","0fte","true"
"375.1600000031758","<svg height=""800"" width=""1657""><rect height=""80"" width=""80""y=""360""x=""788.5"" fill=""green""/></svg>","83","stim_present","test","green","middle","html-keyboard-response","98","1844511","0.0-3.0-0.0-1.35","0fte","true"
"548.340000001248","<svg height=""800"" width=""1657""><rect height=""80"" width=""80""y=""360""x=""414.25"" fill=""red""/></svg>","83","stim_present","test","red","left","html-keyboard-response","101","1848029","0.0-3.0-0.1-1.36","0fte","false"
"635.4600000048522","<svg height=""800"" width=""1657""><rect height=""80"" width=""80""y=""360""x=""788.5"" fill=""red""/></svg>","76","stim_present","test","red","middle","html-keyboard-response","103","1849167","0.0-3.0-0.1-1.37","0fte","true"
"347.4549999956507","<svg height=""800"" width=""1657""><rect height=""80"" width=""80""y=""360""x=""1242.75"" fill=""red""/></svg>","76","stim_present","test","red","right","html-keyboard-response","105","1850017","0.0-3.0-0.1-1.38","0fte","true"
"438.2949999999255","<svg height=""800"" width=""1657""><rect height=""80"" width=""80""y=""360""x=""414.25"" fill=""green""/></svg>","83","stim_present","test","green","left","html-keyboard-response","107","1850958","0.0-3.0-0.1-1.39","0fte","true"
"606.214999999851","<svg height=""800"" width=""1657""><rect height=""80"" width=""80""y=""360""x=""788.5"" fill=""green""/></svg>","83","stim_present","test","green","middle","html-keyboard-response","109","1852067","0.0-3.0-0.1-1.40","0fte","true"
"421.829999999376","<svg height=""800"" width=""1657""><rect height=""80"" width=""80""y=""360""x=""1242.75"" fill=""green""/></svg>","83","stim_present","test","green","right","html-keyboard-response","111","1852993","0.0-3.0-0.1-1.41","0fte","true"
"432.98500000685453","<svg height=""800"" width=""1657""><rect height=""80"" width=""80""y=""360""x=""414.25"" fill=""green""/></svg>","83","stim_present","test","green","left","html-keyboard-response","113","1853931","0.0-3.0-0.1-1.42","0fte","true"
"410.4899999948684","<svg height=""800"" width=""1657""><rect height=""80"" width=""80""y=""360""x=""1242.75"" fill=""green""/></svg>","83","stim_present","test","green","right","html-keyboard-response","115","1854845","0.0-3.0-0.1-1.43","0fte","true"
"466.87499999813735","<svg height=""800"" width=""1657""><rect height=""80"" width=""80""y=""360""x=""414.25"" fill=""red""/></svg>","76","stim_present","test","red","left","html-keyboard-response","117","1855815","0.0-3.0-0.1-1.44","0fte","true"
"527.2899999981746","<svg height=""800"" width=""1657""><rect height=""80"" width=""80""y=""360""x=""1242.75"" fill=""red""/></svg>","76","stim_present","test","red","right","html-keyboard-response","119","1856845","0.0-3.0-0.1-1.45","0fte","true"
"292.9149999981746","<svg height=""800"" width=""1657""><rect height=""80"" width=""80""y=""360""x=""788.5"" fill=""red""/></svg>","76","stim_present","test","red","middle","html-keyboard-response","121","1857641","0.0-3.0-0.1-1.46","0fte","true"
"480.2599999967497","<svg height=""800"" width=""1657""><rect height=""80"" width=""80""y=""360""x=""788.5"" fill=""green""/></svg>","83","stim_present","test","green","middle","html-keyboard-response","123","1858624","0.0-3.0-0.1-1.47","0fte","true"
"932.5049999970943","<svg height=""800"" width=""1657""><rect height=""80"" width=""80""y=""360""x=""788.5"" fill=""green""/></svg>","83","stim_present","test","green","middle","html-keyboard-response","125","1860059","0.0-3.0-0.1-1.48","0fte","true"
"374.53999999701045","<svg height=""800"" width=""1657""><rect height=""80"" width=""80""y=""360""x=""414.25"" fill=""green""/></svg>","83","stim_present","test","green","left","html-keyboard-response","127","1860936","0.0-3.0-0.1-1.49","0fte","true"
"442.3449999957811","<svg height=""800"" width=""1657""><rect height=""80"" width=""80""y=""360""x=""1242.75"" fill=""red""/></svg>","76","stim_present","test","red","right","html-keyboard-response","129","1861880","0.0-3.0-0.1-1.50","0fte","true"
"439.29999999841675","<svg height=""800"" width=""1657""><rect height=""80"" width=""80""y=""360""x=""414.25"" fill=""red""/></svg>","76","stim_present","test","red","left","html-keyboard-response","131","1862823","0.0-3.0-0.1-1.51","0fte","true"
"466.5250000033993","<svg height=""800"" width=""1657""><rect height=""80"" width=""80""y=""360""x=""1242.75"" fill=""green""/></svg>","83","stim_present","test","green","right","html-keyboard-response","133","1863793","0.0-3.0-0.1-1.52","0fte","true"
"594.4299999973737","<svg height=""800"" width=""1657""><rect height=""80"" width=""80""y=""360""x=""788.5"" fill=""red""/></svg>","76","stim_present","test","red","middle","html-keyboard-response","135","1864889","0.0-3.0-0.1-1.53","0fte","true"
"699.9950000024401","<svg height=""800"" width=""1657""><rect height=""80"" width=""80""y=""360""x=""788.5"" fill=""green""/></svg>","83","stim_present","test","green","middle","html-keyboard-response","137","1866093","0.0-3.0-0.1-1.54","0fte","true"
"406.71999999904074","<svg height=""800"" width=""1657""><rect height=""80"" width=""80""y=""360""x=""1242.75"" fill=""green""/></svg>","83","stim_present","test","green","right","html-keyboard-response","139","1867007","0.0-3.0-0.1-1.55","0fte","true"
"546.460000005085","<svg height=""800"" width=""1657""><rect height=""80"" width=""80""y=""360""x=""1242.75"" fill=""red""/></svg>","76","stim_present","test","red","right","html-keyboard-response","141","1868056","0.0-3.0-0.1-1.56","0fte","true"
"534.1100000005681","<svg height=""800"" width=""1657""><rect height=""80"" width=""80""y=""360""x=""414.25"" fill=""green""/></svg>","83","stim_present","test","green","left","html-keyboard-response","143","1869094","0.0-3.0-0.1-1.57","0fte","true"
"376.94000000180677","<svg height=""800"" width=""1657""><rect height=""80"" width=""80""y=""360""x=""788.5"" fill=""red""/></svg>","76","stim_present","test","red","middle","html-keyboard-response","145","1869973","0.0-3.0-0.1-1.58","0fte","true"
"485.89499999792315","<svg height=""800"" width=""1657""><rect height=""80"" width=""80""y=""360""x=""414.25"" fill=""red""/></svg>","83","stim_present","test","red","left","html-keyboard-response","147","1870963","0.0-3.0-0.1-1.59","0fte","false"
"651.525000001071","<svg height=""800"" width=""1657""><rect height=""80"" width=""80""y=""360""x=""414.25"" fill=""green""/></svg>","83","stim_present","test","green","left","html-keyboard-response","149","1872117","0.0-3.0-0.1-1.60","0fte","true"
"410.3300000061281","<svg height=""800"" width=""1657""><rect height=""80"" width=""80""y=""360""x=""1242.75"" fill=""red""/></svg>","76","stim_present","test","red","right","html-keyboard-response","151","1873030","0.0-3.0-0.1-1.61","0fte","true"
"342.2199999988079","<svg height=""800"" width=""1657""><rect height=""80"" width=""80""y=""360""x=""414.25"" fill=""red""/></svg>","76","stim_present","test","red","left","html-keyboard-response","153","1873874","0.0-3.0-0.1-1.62","0fte","true"
"302.71000000368804","<svg height=""800"" width=""1657""><rect height=""80"" width=""80""y=""360""x=""788.5"" fill=""green""/></svg>","76","stim_present","test","green","middle","html-keyboard-response","155","1874679","0.0-3.0-0.1-1.63","0fte","false"
"472.79000000003725","<svg height=""800"" width=""1657""><rect height=""80"" width=""80""y=""360""x=""788.5"" fill=""red""/></svg>","76","stim_present","test","red","middle","html-keyboard-response","157","1875653","0.0-3.0-0.1-1.64","0fte","true"
"375.88999999593943","<svg height=""800"" width=""1657""><rect height=""80"" width=""80""y=""360""x=""1242.75"" fill=""green""/></svg>","83","stim_present","test","green","right","html-keyboard-response","159","1876546","0.0-3.0-0.1-1.65","0fte","true"
"662.519999998156","<svg height=""800"" width=""1657""><rect height=""80"" width=""80""y=""360""x=""788.5"" fill=""red""/></svg>","76","stim_present","test","red","middle","html-keyboard-response","161","1877714","0.0-3.0-0.1-1.66","0fte","true"
"522.5849999987986","<svg height=""800"" width=""1657""><rect height=""80"" width=""80""y=""360""x=""1242.75"" fill=""green""/></svg>","83","stim_present","test","green","right","html-keyboard-response","163","1878739","0.0-3.0-0.1-1.67","0fte","true"
"728.5950000006706","<svg height=""800"" width=""1657""><rect height=""80"" width=""80""y=""360""x=""1242.75"" fill=""red""/></svg>","76","stim_present","test","red","right","html-keyboard-response","165","1879970","0.0-3.0-0.1-1.68","0fte","true"
"562.0750000015832","<svg height=""800"" width=""1657""><rect height=""80"" width=""80""y=""360""x=""414.25"" fill=""red""/></svg>","83","stim_present","test","red","left","html-keyboard-response","167","1881035","0.0-3.0-0.1-1.69","0fte","false"
"810.839999998454","<svg height=""800"" width=""1657""><rect height=""80"" width=""80""y=""360""x=""788.5"" fill=""green""/></svg>","76","stim_present","test","green","middle","html-keyboard-response","169","1882348","0.0-3.0-0.1-1.70","0fte","false"
"689.7949999982957","<svg height=""800"" width=""1657""><rect height=""80"" width=""80""y=""360""x=""414.25"" fill=""green""/></svg>","83","stim_present","test","green","left","html-keyboard-response","171","1883541","0.0-3.0-0.1-1.71","0fte","true"
"756.3699999954551","<svg height=""800"" width=""1657""><rect height=""80"" width=""80""y=""360""x=""1242.75"" fill=""green""/></svg>","83","stim_present","test","green","right","html-keyboard-response","174","1885521","0.0-3.0-0.2-1.72","0fte","true"
"402.22999999974854","<svg height=""800"" width=""1657""><rect height=""80"" width=""80""y=""360""x=""414.25"" fill=""green""/></svg>","83","stim_present","test","green","left","html-keyboard-response","176","1886426","0.0-3.0-0.2-1.73","0fte","true"
"420.339999997057","<svg height=""800"" width=""1657""><rect height=""80"" width=""80""y=""360""x=""414.25"" fill=""red""/></svg>","76","stim_present","test","red","left","html-keyboard-response","178","1887349","0.0-3.0-0.2-1.74","0fte","true"
"375.3100000030827","<svg height=""800"" width=""1657""><rect height=""80"" width=""80""y=""360""x=""1242.75"" fill=""red""/></svg>","76","stim_present","test","red","right","html-keyboard-response","180","1888227","0.0-3.0-0.2-1.75","0fte","true"
"364.45500000263564","<svg height=""800"" width=""1657""><rect height=""80"" width=""80""y=""360""x=""788.5"" fill=""red""/></svg>","76","stim_present","test","red","middle","html-keyboard-response","182","1889101","0.0-3.0-0.2-1.76","0fte","true"
"397.0800000024028","<svg height=""800"" width=""1657""><rect height=""80"" width=""80""y=""360""x=""788.5"" fill=""green""/></svg>","83","stim_present","test","green","middle","html-keyboard-response","184","1890000","0.0-3.0-0.2-1.77","0fte","true"
"401.87000000150874","<svg height=""800"" width=""1657""><rect height=""80"" width=""80""y=""360""x=""1242.75"" fill=""green""/></svg>","83","stim_present","test","green","right","html-keyboard-response","186","1890905","0.0-3.0-0.2-1.78","0fte","true"
"435.23999999905936","<svg height=""800"" width=""1657""><rect height=""80"" width=""80""y=""360""x=""788.5"" fill=""green""/></svg>","83","stim_present","test","green","middle","html-keyboard-response","188","1891843","0.0-3.0-0.2-1.79","0fte","true"
"366.1949999949429","<svg height=""800"" width=""1657""><rect height=""80"" width=""80""y=""360""x=""1242.75"" fill=""red""/></svg>","76","stim_present","test","red","right","html-keyboard-response","190","1892720","0.0-3.0-0.2-1.80","0fte","true"
"389.1950000033248","<svg height=""800"" width=""1657""><rect height=""80"" width=""80""y=""360""x=""414.25"" fill=""green""/></svg>","83","stim_present","test","green","left","html-keyboard-response","192","1893613","0.0-3.0-0.2-1.81","0fte","true"
"424.7550000001211","<svg height=""800"" width=""1657""><rect height=""80"" width=""80""y=""360""x=""788.5"" fill=""red""/></svg>","76","stim_present","test","red","middle","html-keyboard-response","194","1894543","0.0-3.0-0.2-1.82","0fte","true"
"391.2300000011455","<svg height=""800"" width=""1657""><rect height=""80"" width=""80""y=""360""x=""414.25"" fill=""red""/></svg>","76","stim_present","test","red","left","html-keyboard-response","196","1895438","0.0-3.0-0.2-1.83","0fte","true"
"412.60000000335276","<svg height=""800"" width=""1657""><rect height=""80"" width=""80""y=""360""x=""414.25"" fill=""green""/></svg>","76","stim_present","test","green","left","html-keyboard-response","198","1896353","0.0-3.0-0.2-1.84","0fte","false"
"507.64999999967404","<svg height=""800"" width=""1657""><rect height=""80"" width=""80""y=""360""x=""1242.75"" fill=""red""/></svg>","76","stim_present","test","red","right","html-keyboard-response","200","1897377","0.0-3.0-0.2-1.85","0fte","true"
"580.6749999972526","<svg height=""800"" width=""1657""><rect height=""80"" width=""80""y=""360""x=""414.25"" fill=""red""/></svg>","76","stim_present","test","red","left","html-keyboard-response","202","1898461","0.0-3.0-0.2-1.86","0fte","true"
"332.7600000046659","<svg height=""800"" width=""1657""><rect height=""80"" width=""80""y=""360""x=""788.5"" fill=""green""/></svg>","83","stim_present","test","green","middle","html-keyboard-response","204","1899297","0.0-3.0-0.2-1.87","0fte","true"
"424.21000000461936","<svg height=""800"" width=""1657""><rect height=""80"" width=""80""y=""360""x=""788.5"" fill=""red""/></svg>","83","stim_present","test","red","middle","html-keyboard-response","206","1900223","0.0-3.0-0.2-1.88","0fte","false"
"575.4250000028405","<svg height=""800"" width=""1657""><rect height=""80"" width=""80""y=""360""x=""1242.75"" fill=""green""/></svg>","83","stim_present","test","green","right","html-keyboard-response","208","1901305","0.0-3.0-0.2-1.89","0fte","true"
"407.1000000038184","<svg height=""800"" width=""1657""><rect height=""80"" width=""80""y=""360""x=""788.5"" fill=""red""/></svg>","76","stim_present","test","red","middle","html-keyboard-response","210","1902215","0.0-3.0-0.2-1.90","0fte","true"
"485.4049999995623","<svg height=""800"" width=""1657""><rect height=""80"" width=""80""y=""360""x=""414.25"" fill=""red""/></svg>","76","stim_present","test","red","left","html-keyboard-response","212","1903202","0.0-3.0-0.2-1.91","0fte","true"
"497.5249999987427","<svg height=""800"" width=""1657""><rect height=""80"" width=""80""y=""360""x=""1242.75"" fill=""green""/></svg>","83","stim_present","test","green","right","html-keyboard-response","214","1904202","0.0-3.0-0.2-1.92","0fte","true"
"826.7150000028778","<svg height=""800"" width=""1657""><rect height=""80"" width=""80""y=""360""x=""788.5"" fill=""green""/></svg>","83","stim_present","test","green","middle","html-keyboard-response","216","1905531","0.0-3.0-0.2-1.93","0fte","true"
"634.0100000014063","<svg height=""800"" width=""1657""><rect height=""80"" width=""80""y=""360""x=""1242.75"" fill=""red""/></svg>","76","stim_present","test","red","right","html-keyboard-response","218","1906669","0.0-3.0-0.2-1.94","0fte","true"
"620.2399999964982","<svg height=""800"" width=""1657""><rect height=""80"" width=""80""y=""360""x=""414.25"" fill=""green""/></svg>","83","stim_present","test","green","left","html-keyboard-response","220","1907792","0.0-3.0-0.2-1.95","0fte","true"
"415.91999999945983","<svg height=""800"" width=""1657""><rect height=""80"" width=""80""y=""360""x=""1242.75"" fill=""green""/></svg>","83","stim_present","test","green","right","html-keyboard-response","222","1908711","0.0-3.0-0.2-1.96","0fte","true"
"331.70999999856576","<svg height=""800"" width=""1657""><rect height=""80"" width=""80""y=""360""x=""788.5"" fill=""green""/></svg>","83","stim_present","test","green","middle","html-keyboard-response","224","1909547","0.0-3.0-0.2-1.97","0fte","true"
"331.22500000172295","<svg height=""800"" width=""1657""><rect height=""80"" width=""80""y=""360""x=""1242.75"" fill=""red""/></svg>","76","stim_present","test","red","right","html-keyboard-response","226","1910380","0.0-3.0-0.2-1.98","0fte","true"
"382.9699999988079","<svg height=""800"" width=""1657""><rect height=""80"" width=""80""y=""360""x=""414.25"" fill=""green""/></svg>","76","stim_present","test","green","left","html-keyboard-response","228","1911266","0.0-3.0-0.2-1.99","0fte","false"
"477.22499999497086","<svg height=""800"" width=""1657""><rect height=""80"" width=""80""y=""360""x=""788.5"" fill=""red""/></svg>","76","stim_present","test","red","middle","html-keyboard-response","230","1912246","0.0-3.0-0.2-1.100","0fte","true"
"518.85999999661","<svg height=""800"" width=""1657""><rect height=""80"" width=""80""y=""360""x=""414.25"" fill=""red""/></svg>","76","stim_present","test","red","left","html-keyboard-response","232","1913268","0.0-3.0-0.2-1.101","0fte","true"
"418.41500000003725","<svg height=""800"" width=""1657""><rect height=""80"" width=""80""y=""360""x=""1242.75"" fill=""green""/></svg>","83","stim_present","test","green","right","html-keyboard-response","234","1914188","0.0-3.0-0.2-1.102","0fte","true"
"1039.2300000020768","<svg height=""800"" width=""1657""><rect height=""80"" width=""80""y=""360""x=""414.25"" fill=""green""/></svg>","83","stim_present","test","green","left","html-keyboard-response","236","1915731","0.0-3.0-0.2-1.103","0fte","true"
"468.76999999955297","<svg height=""800"" width=""1657""><rect height=""80"" width=""80""y=""360""x=""788.5"" fill=""red""/></svg>","76","stim_present","test","red","middle","html-keyboard-response","238","1916703","0.0-3.0-0.2-1.104","0fte","true"
"607.0350000010803","<svg height=""800"" width=""1657""><rect height=""80"" width=""80""y=""360""x=""1242.75"" fill=""red""/></svg>","76","stim_present","test","red","right","html-keyboard-response","240","1917814","0.0-3.0-0.2-1.105","0fte","true"
"532.1750000002794","<svg height=""800"" width=""1657""><rect height=""80"" width=""80""y=""360""x=""788.5"" fill=""green""/></svg>","83","stim_present","test","green","middle","html-keyboard-response","242","1918849","0.0-3.0-0.2-1.106","0fte","true"
"631.5850000029895","<svg height=""800"" width=""1657""><rect height=""80"" width=""80""y=""360""x=""414.25"" fill=""red""/></svg>","76","stim_present","test","red","left","html-keyboard-response","244","1919983","0.0-3.0-0.2-1.107","0fte","true"
"1044.2600000023376","<svg height=""800"" width=""1657""><rect height=""80"" width=""80""y=""360""x=""414.25"" fill=""green""/></svg>","76","stim_present","test","green","left","html-keyboard-response","247","1922565","0.0-3.0-0.3-1.108","0fte","false"
"749.7300000030082","<svg height=""800"" width=""1657""><rect height=""80"" width=""80""y=""360""x=""1242.75"" fill=""green""/></svg>","83","stim_present","test","green","right","html-keyboard-response","249","1923817","0.0-3.0-0.3-1.109","0fte","true"
"798.4149999974761","<svg height=""800"" width=""1657""><rect height=""80"" width=""80""y=""360""x=""414.25"" fill=""red""/></svg>","76","stim_present","test","red","left","html-keyboard-response","251","1925118","0.0-3.0-0.3-1.110","0fte","true"
"593.1649999984074","<svg height=""800"" width=""1657""><rect height=""80"" width=""80""y=""360""x=""788.5"" fill=""red""/></svg>","76","stim_present","test","red","middle","html-keyboard-response","253","1926217","0.0-3.0-0.3-1.111","0fte","true"
"625.4800000025425","<svg height=""800"" width=""1657""><rect height=""80"" width=""80""y=""360""x=""1242.75"" fill=""red""/></svg>","76","stim_present","test","red","right","html-keyboard-response","255","1927345","0.0-3.0-0.3-1.112","0fte","true"
"461.0450000036508","<svg height=""800"" width=""1657""><rect height=""80"" width=""80""y=""360""x=""788.5"" fill=""green""/></svg>","83","stim_present","test","green","middle","html-keyboard-response","257","1928308","0.0-3.0-0.3-1.113","0fte","true"
"563.8599999947473","<svg height=""800"" width=""1657""><rect height=""80"" width=""80""y=""360""x=""788.5"" fill=""red""/></svg>","83","stim_present","test","red","middle","html-keyboard-response","259","1929375","0.0-3.0-0.3-1.114","0fte","false"
"419.2800000018906","<svg height=""800"" width=""1657""><rect height=""80"" width=""80""y=""360""x=""1242.75"" fill=""red""/></svg>","83","stim_present","test","red","right","html-keyboard-response","261","1930297","0.0-3.0-0.3-1.115","0fte","false"
"544.2150000017136","<svg height=""800"" width=""1657""><rect height=""80"" width=""80""y=""360""x=""788.5"" fill=""green""/></svg>","83","stim_present","test","green","middle","html-keyboard-response","263","1931344","0.0-3.0-0.3-1.116","0fte","true"
"988.2499999948777","<svg height=""800"" width=""1657""><rect height=""80"" width=""80""y=""360""x=""1242.75"" fill=""green""/></svg>","83","stim_present","test","green","right","html-keyboard-response","265","1932835","0.0-3.0-0.3-1.117","0fte","true"
"429.8750000016298","<svg height=""800"" width=""1657""><rect height=""80"" width=""80""y=""360""x=""414.25"" fill=""green""/></svg>","83","stim_present","test","green","left","html-keyboard-response","267","1933768","0.0-3.0-0.3-1.118","0fte","true"
"527.2600000025705","<svg height=""800"" width=""1657""><rect height=""80"" width=""80""y=""360""x=""414.25"" fill=""red""/></svg>","76","stim_present","test","red","left","html-keyboard-response","269","1934797","0.0-3.0-0.3-1.119","0fte","true"
"763.930000001099","<svg height=""800"" width=""1657""><rect height=""80"" width=""80""y=""360""x=""788.5"" fill=""red""/></svg>","76","stim_present","test","red","middle","html-keyboard-response","271","1936065","0.0-3.0-0.3-1.120","0fte","true"
"383.5350000008475","<svg height=""800"" width=""1657""><rect height=""80"" width=""80""y=""360""x=""414.25"" fill=""red""/></svg>","76","stim_present","test","red","left","html-keyboard-response","273","1936952","0.0-3.0-0.3-1.121","0fte","true"
"555.2549999994226","<svg height=""800"" width=""1657""><rect height=""80"" width=""80""y=""360""x=""414.25"" fill=""green""/></svg>","83","stim_present","test","green","left","html-keyboard-response","275","1938010","0.0-3.0-0.3-1.122","0fte","true"
"1055.3350000046194","<svg height=""800"" width=""1657""><rect height=""80"" width=""80""y=""360""x=""1242.75"" fill=""green""/></svg>","83","stim_present","test","green","right","html-keyboard-response","277","1939569","0.0-3.0-0.3-1.123","0fte","true"
"603.8299999998417","<svg height=""800"" width=""1657""><rect height=""80"" width=""80""y=""360""x=""1242.75"" fill=""red""/></svg>","76","stim_present","test","red","right","html-keyboard-response","279","1940675","0.0-3.0-0.3-1.124","0fte","true"
"753.474999997532","<svg height=""800"" width=""1657""><rect height=""80"" width=""80""y=""360""x=""788.5"" fill=""green""/></svg>","83","stim_present","test","green","middle","html-keyboard-response","281","1941935","0.0-3.0-0.3-1.125","0fte","true"
"410.79000000166707","<svg height=""800"" width=""1657""><rect height=""80"" width=""80""y=""360""x=""414.25"" fill=""green""/></svg>","83","stim_present","test","green","left","html-keyboard-response","283","1942849","0.0-3.0-0.3-1.126","0fte","true"
"423.54499999783","<svg height=""800"" width=""1657""><rect height=""80"" width=""80""y=""360""x=""414.25"" fill=""red""/></svg>","76","stim_present","test","red","left","html-keyboard-response","285","1943775","0.0-3.0-0.3-1.127","0fte","true"
"473.34499999834225","<svg height=""800"" width=""1657""><rect height=""80"" width=""80""y=""360""x=""1242.75"" fill=""green""/></svg>","83","stim_present","test","green","right","html-keyboard-response","287","1944751","0.0-3.0-0.3-1.128","0fte","true"
"567.6050000037067","<svg height=""800"" width=""1657""><rect height=""80"" width=""80""y=""360""x=""788.5"" fill=""red""/></svg>","76","stim_present","test","red","middle","html-keyboard-response","289","1945822","0.0-3.0-0.3-1.129","0fte","true"
"636.289999994915","<svg height=""800"" width=""1657""><rect height=""80"" width=""80""y=""360""x=""788.5"" fill=""green""/></svg>","83","stim_present","test","green","middle","html-keyboard-response","291","1946959","0.0-3.0-0.3-1.130","0fte","true"
"477.4600000018254","<svg height=""800"" width=""1657""><rect height=""80"" width=""80""y=""360""x=""1242.75"" fill=""red""/></svg>","83","stim_present","test","red","right","html-keyboard-response","293","1947939","0.0-3.0-0.3-1.131","0fte","false"
"769.7850000038743","<svg height=""800"" width=""1657""><rect height=""80"" width=""80""y=""360""x=""788.5"" fill=""green""/></svg>","83","stim_present","test","green","middle","html-keyboard-response","295","1949224","0.0-3.0-0.3-1.132","0fte","true"
"360.74999999976717","<svg height=""800"" width=""1657""><rect height=""80"" width=""80""y=""360""x=""414.25"" fill=""green""/></svg>","83","stim_present","test","green","left","html-keyboard-response","297","1950087","0.0-3.0-0.3-1.133","0fte","true"
"336.3099999986589","<svg height=""800"" width=""1657""><rect height=""80"" width=""80""y=""360""x=""1242.75"" fill=""green""/></svg>","83","stim_present","test","green","right","html-keyboard-response","299","1950925","0.0-3.0-0.3-1.134","0fte","true"
"570.6100000024308","<svg height=""800"" width=""1657""><rect height=""80"" width=""80""y=""360""x=""1242.75"" fill=""red""/></svg>","76","stim_present","test","red","right","html-keyboard-response","301","1951998","0.0-3.0-0.3-1.135","0fte","true"
"433.20999999553896","<svg height=""800"" width=""1657""><rect height=""80"" width=""80""y=""360""x=""788.5"" fill=""red""/></svg>","76","stim_present","test","red","middle","html-keyboard-response","303","1952934","0.0-3.0-0.3-1.136","0fte","true"
"365.2349999975413","<svg height=""800"" width=""1657""><rect height=""80"" width=""80""y=""360""x=""414.25"" fill=""red""/></svg>","76","stim_present","test","red","left","html-keyboard-response","305","1953802","0.0-3.0-0.3-1.137","0fte","true"
"462.29499999736436","<svg height=""800"" width=""1657""><rect height=""80"" width=""80""y=""360""x=""414.25"" fill=""green""/></svg>","83","stim_present","test","green","left","html-keyboard-response","307","1954767","0.0-3.0-0.3-1.138","0fte","true"
"711.29999999539","<svg height=""800"" width=""1657""><rect height=""80"" width=""80""y=""360""x=""414.25"" fill=""red""/></svg>","76","stim_present","test","red","left","html-keyboard-response","309","1955983","0.0-3.0-0.3-1.139","0fte","true"
"384.259999999078","<svg height=""800"" width=""1657""><rect height=""80"" width=""80""y=""360""x=""788.5"" fill=""red""/></svg>","76","stim_present","test","red","middle","html-keyboard-response","311","1956870","0.0-3.0-0.3-1.140","0fte","true"
"382.5799999977462","<svg height=""800"" width=""1657""><rect height=""80"" width=""80""y=""360""x=""1242.75"" fill=""red""/></svg>","76","stim_present","test","red","right","html-keyboard-response","313","1957755","0.0-3.0-0.3-1.141","0fte","true"
"435.7349999989383","<svg height=""800"" width=""1657""><rect height=""80"" width=""80""y=""360""x=""788.5"" fill=""green""/></svg>","83","stim_present","test","green","middle","html-keyboard-response","315","1958694","0.0-3.0-0.3-1.142","0fte","true"
"438.3700000033714","<svg height=""800"" width=""1657""><rect height=""80"" width=""80""y=""360""x=""1242.75"" fill=""green""/></svg>","83","stim_present","test","green","right","html-keyboard-response","317","1959635","0.0-3.0-0.3-1.143","0fte","true"
