"rt","stimulus","key_press","type","part","color","position","trial_type","trial_index","time_elapsed","internal_node_id","subject","accuracy"
"542.4700000003213","<svg height=""671"" width=""1230""><rect height=""67.1"" width=""67.1""y=""301.95""x=""581.45"" fill=""red""/></svg>","76","stim_present","training","red","middle","html-keyboard-response","3","37660","0.0-2.0-0.0-1.0","qheo","true"
"382.76500000210945","<svg height=""671"" width=""1230""><rect height=""67.1"" width=""67.1""y=""301.95""x=""307.5"" fill=""green""/></svg>","83","stim_present","training","green","left","html-keyboard-response","5","38549","0.0-2.0-0.0-1.1","qheo","true"
"551.0550000035437","<svg height=""671"" width=""1230""><rect height=""67.1"" width=""67.1""y=""301.95""x=""307.5"" fill=""red""/></svg>","76","stim_present","training","red","left","html-keyboard-response","7","39605","0.0-2.0-0.0-1.2","qheo","true"
"499.82500000623986","<svg height=""671"" width=""1230""><rect height=""67.1"" width=""67.1""y=""301.95""x=""922.5"" fill=""red""/></svg>","76","stim_present","training","red","right","html-keyboard-response","9","40607","0.0-2.0-0.0-1.3","qheo","true"
"383.71499998902436","<svg height=""671"" width=""1230""><rect height=""67.1"" width=""67.1""y=""301.95""x=""581.45"" fill=""green""/></svg>","83","stim_present","training","green","middle","html-keyboard-response","11","41496","0.0-2.0-0.0-1.4","qheo","true"
"472.1049999934621","<svg height=""671"" width=""1230""><rect height=""67.1"" width=""67.1""y=""301.95""x=""922.5"" fill=""green""/></svg>","83","stim_present","training","green","right","html-keyboard-response","13","42469","0.0-2.0-0.0-1.5","qheo","true"
"365.6349999946542","<svg height=""671"" width=""1230""><rect height=""67.1"" width=""67.1""y=""301.95""x=""307.5"" fill=""red""/></svg>","76","stim_present","training","red","left","html-keyboard-response","15","43341","0.0-2.0-0.0-1.6","qheo","true"
"431.85999999695923","<svg height=""671"" width=""1230""><rect height=""67.1"" width=""67.1""y=""301.95""x=""307.5"" fill=""green""/></svg>","76","stim_present","training","green","left","html-keyboard-response","17","44275","0.0-2.0-0.0-1.7","qheo","false"
"454.16999999724794","<svg height=""671"" width=""1230""><rect height=""67.1"" width=""67.1""y=""301.95""x=""922.5"" fill=""red""/></svg>","76","stim_present","training","red","right","html-keyboard-response","19","45231","0.0-2.0-0.0-1.8","qheo","true"
"416.88999999314547","<svg height=""671"" width=""1230""><rect height=""67.1"" width=""67.1""y=""301.95""x=""581.45"" fill=""green""/></svg>","83","stim_present","training","green","middle","html-keyboard-response","21","46154","0.0-2.0-0.0-1.9","qheo","true"
"430.61999999918044","<svg height=""671"" width=""1230""><rect height=""67.1"" width=""67.1""y=""301.95""x=""922.5"" fill=""green""/></svg>","83","stim_present","training","green","right","html-keyboard-response","23","47088","0.0-2.0-0.0-1.10","qheo","true"
"419.8799999867333","<svg height=""671"" width=""1230""><rect height=""67.1"" width=""67.1""y=""301.95""x=""581.45"" fill=""red""/></svg>","76","stim_present","training","red","middle","html-keyboard-response","25","48010","0.0-2.0-0.0-1.11","qheo","true"
"601.5400000032969","<svg height=""671"" width=""1230""><rect height=""67.1"" width=""67.1""y=""301.95""x=""922.5"" fill=""green""/></svg>","83","stim_present","test","green","right","html-keyboard-response","28","57049","0.0-3.0-0.0-1.0","qheo","true"
"378.43500000599306","<svg height=""671"" width=""1230""><rect height=""67.1"" width=""67.1""y=""301.95""x=""581.45"" fill=""green""/></svg>","83","stim_present","test","green","middle","html-keyboard-response","30","57933","0.0-3.0-0.0-1.1","qheo","true"
"351.18500000680797","<svg height=""671"" width=""1230""><rect height=""67.1"" width=""67.1""y=""301.95""x=""307.5"" fill=""red""/></svg>","76","stim_present","test","red","left","html-keyboard-response","32","58787","0.0-3.0-0.0-1.2","qheo","true"
"363.88000000442844","<svg height=""671"" width=""1230""><rect height=""67.1"" width=""67.1""y=""301.95""x=""581.45"" fill=""red""/></svg>","76","stim_present","test","red","middle","html-keyboard-response","34","59654","0.0-3.0-0.0-1.3","qheo","true"
"349.1199999989476","<svg height=""671"" width=""1230""><rect height=""67.1"" width=""67.1""y=""301.95""x=""307.5"" fill=""green""/></svg>","83","stim_present","test","green","left","html-keyboard-response","36","60508","0.0-3.0-0.0-1.4","qheo","true"
"319.43000000319444","<svg height=""671"" width=""1230""><rect height=""67.1"" width=""67.1""y=""301.95""x=""922.5"" fill=""red""/></svg>","76","stim_present","test","red","right","html-keyboard-response","38","61330","0.0-3.0-0.0-1.5","qheo","true"
"341.084999992745","<svg height=""671"" width=""1230""><rect height=""67.1"" width=""67.1""y=""301.95""x=""581.45"" fill=""red""/></svg>","76","stim_present","test","red","middle","html-keyboard-response","40","62174","0.0-3.0-0.0-1.6","qheo","true"
"404.3950000050245","<svg height=""671"" width=""1230""><rect height=""67.1"" width=""67.1""y=""301.95""x=""307.5"" fill=""red""/></svg>","76","stim_present","test","red","left","html-keyboard-response","42","63084","0.0-3.0-0.0-1.7","qheo","true"
"472.5800000014715","<svg height=""671"" width=""1230""><rect height=""67.1"" width=""67.1""y=""301.95""x=""922.5"" fill=""green""/></svg>","83","stim_present","test","green","right","html-keyboard-response","44","64062","0.0-3.0-0.0-1.8","qheo","true"
"338.9949999982491","<svg height=""671"" width=""1230""><rect height=""67.1"" width=""67.1""y=""301.95""x=""922.5"" fill=""red""/></svg>","76","stim_present","test","red","right","html-keyboard-response","46","64907","0.0-3.0-0.0-1.9","qheo","true"
"342.27500000270084","<svg height=""671"" width=""1230""><rect height=""67.1"" width=""67.1""y=""301.95""x=""307.5"" fill=""green""/></svg>","83","stim_present","test","green","left","html-keyboard-response","48","65751","0.0-3.0-0.0-1.10","qheo","true"
"318.8150000059977","<svg height=""671"" width=""1230""><rect height=""67.1"" width=""67.1""y=""301.95""x=""581.45"" fill=""green""/></svg>","83","stim_present","test","green","middle","html-keyboard-response","50","66572","0.0-3.0-0.0-1.11","qheo","true"
"416.6950000071665","<svg height=""671"" width=""1230""><rect height=""67.1"" width=""67.1""y=""301.95""x=""581.45"" fill=""red""/></svg>","76","stim_present","test","red","middle","html-keyboard-response","52","67495","0.0-3.0-0.0-1.12","qheo","true"
"351.1750000034226","<svg height=""671"" width=""1230""><rect height=""67.1"" width=""67.1""y=""301.95""x=""581.45"" fill=""green""/></svg>","83","stim_present","test","green","middle","html-keyboard-response","54","68350","0.0-3.0-0.0-1.13","qheo","true"
"533.2849999977043","<svg height=""671"" width=""1230""><rect height=""67.1"" width=""67.1""y=""301.95""x=""307.5"" fill=""red""/></svg>","76","stim_present","test","red","left","html-keyboard-response","56","69385","0.0-3.0-0.0-1.14","qheo","true"
"375.7400000031339","<svg height=""671"" width=""1230""><rect height=""67.1"" width=""67.1""y=""301.95""x=""307.5"" fill=""green""/></svg>","83","stim_present","test","green","left","html-keyboard-response","58","70263","0.0-3.0-0.0-1.15","qheo","true"
"348.9199999894481","<svg height=""671"" width=""1230""><rect height=""67.1"" width=""67.1""y=""301.95""x=""922.5"" fill=""red""/></svg>","76","stim_present","test","red","right","html-keyboard-response","60","71117","0.0-3.0-0.0-1.16","qheo","true"
"397.2900000080699","<svg height=""671"" width=""1230""><rect height=""67.1"" width=""67.1""y=""301.95""x=""922.5"" fill=""green""/></svg>","83","stim_present","test","green","right","html-keyboard-response","62","72017","0.0-3.0-0.0-1.17","qheo","true"
"432.34499999380205","<svg height=""671"" width=""1230""><rect height=""67.1"" width=""67.1""y=""301.95""x=""307.5"" fill=""green""/></svg>","83","stim_present","test","green","left","html-keyboard-response","64","72951","0.0-3.0-0.0-1.18","qheo","true"
"395.39499999955297","<svg height=""671"" width=""1230""><rect height=""67.1"" width=""67.1""y=""301.95""x=""922.5"" fill=""green""/></svg>","83","stim_present","test","green","right","html-keyboard-response","66","73851","0.0-3.0-0.0-1.19","qheo","true"
"405.49999999348074","<svg height=""671"" width=""1230""><rect height=""67.1"" width=""67.1""y=""301.95""x=""307.5"" fill=""red""/></svg>","76","stim_present","test","red","left","html-keyboard-response","68","74762","0.0-3.0-0.0-1.20","qheo","true"
"353.7600000126986","<svg height=""671"" width=""1230""><rect height=""67.1"" width=""67.1""y=""301.95""x=""581.45"" fill=""red""/></svg>","76","stim_present","test","red","middle","html-keyboard-response","70","75617","0.0-3.0-0.0-1.21","qheo","true"
"360.6149999977788","<svg height=""671"" width=""1230""><rect height=""67.1"" width=""67.1""y=""301.95""x=""581.45"" fill=""green""/></svg>","83","stim_present","test","green","middle","html-keyboard-response","72","76484","0.0-3.0-0.0-1.22","qheo","true"
"430.14000001130626","<svg height=""671"" width=""1230""><rect height=""67.1"" width=""67.1""y=""301.95""x=""922.5"" fill=""red""/></svg>","76","stim_present","test","red","right","html-keyboard-response","74","77417","0.0-3.0-0.0-1.23","qheo","true"
"371.85999999928754","<svg height=""671"" width=""1230""><rect height=""67.1"" width=""67.1""y=""301.95""x=""922.5"" fill=""red""/></svg>","76","stim_present","test","red","right","html-keyboard-response","76","78295","0.0-3.0-0.0-1.24","qheo","true"
"383.6100000044098","<svg height=""671"" width=""1230""><rect height=""67.1"" width=""67.1""y=""301.95""x=""922.5"" fill=""green""/></svg>","83","stim_present","test","green","right","html-keyboard-response","78","79184","0.0-3.0-0.0-1.25","qheo","true"
"378.23000000207685","<svg height=""671"" width=""1230""><rect height=""67.1"" width=""67.1""y=""301.95""x=""581.45"" fill=""green""/></svg>","83","stim_present","test","green","middle","html-keyboard-response","80","80066","0.0-3.0-0.0-1.26","qheo","true"
"421.70000000623986","<svg height=""671"" width=""1230""><rect height=""67.1"" width=""67.1""y=""301.95""x=""307.5"" fill=""red""/></svg>","76","stim_present","test","red","left","html-keyboard-response","82","80989","0.0-3.0-0.0-1.27","qheo","true"
"321.58499999786727","<svg height=""671"" width=""1230""><rect height=""67.1"" width=""67.1""y=""301.95""x=""581.45"" fill=""red""/></svg>","76","stim_present","test","red","middle","html-keyboard-response","84","81815","0.0-3.0-0.0-1.28","qheo","true"
"387.7400000055786","<svg height=""671"" width=""1230""><rect height=""67.1"" width=""67.1""y=""301.95""x=""307.5"" fill=""green""/></svg>","83","stim_present","test","green","left","html-keyboard-response","86","82705","0.0-3.0-0.0-1.29","qheo","true"
"306.0700000060024","<svg height=""671"" width=""1230""><rect height=""67.1"" width=""67.1""y=""301.95""x=""922.5"" fill=""red""/></svg>","76","stim_present","test","red","right","html-keyboard-response","88","83516","0.0-3.0-0.0-1.30","qheo","true"
"400.2550000004703","<svg height=""671"" width=""1230""><rect height=""67.1"" width=""67.1""y=""301.95""x=""922.5"" fill=""green""/></svg>","76","stim_present","test","green","right","html-keyboard-response","90","84419","0.0-3.0-0.0-1.31","qheo","false"
"614.304999995511","<svg height=""671"" width=""1230""><rect height=""67.1"" width=""67.1""y=""301.95""x=""307.5"" fill=""green""/></svg>","83","stim_present","test","green","left","html-keyboard-response","92","85540","0.0-3.0-0.0-1.32","qheo","true"
"342.24499999254476","<svg height=""671"" width=""1230""><rect height=""67.1"" width=""67.1""y=""301.95""x=""581.45"" fill=""green""/></svg>","83","stim_present","test","green","middle","html-keyboard-response","94","86384","0.0-3.0-0.0-1.33","qheo","true"
"396.0150000057183","<svg height=""671"" width=""1230""><rect height=""67.1"" width=""67.1""y=""301.95""x=""581.45"" fill=""red""/></svg>","76","stim_present","test","red","middle","html-keyboard-response","96","87283","0.0-3.0-0.0-1.34","qheo","true"
"320.1699999917764","<svg height=""671"" width=""1230""><rect height=""67.1"" width=""67.1""y=""301.95""x=""307.5"" fill=""red""/></svg>","76","stim_present","test","red","left","html-keyboard-response","98","88104","0.0-3.0-0.0-1.35","qheo","true"
"424.67999999644235","<svg height=""671"" width=""1230""><rect height=""67.1"" width=""67.1""y=""301.95""x=""922.5"" fill=""red""/></svg>","76","stim_present","test","red","right","html-keyboard-response","101","95150","0.0-3.0-0.1-1.36","qheo","true"
"393.83499999530613","<svg height=""671"" width=""1230""><rect height=""67.1"" width=""67.1""y=""301.95""x=""581.45"" fill=""green""/></svg>","83","stim_present","test","green","middle","html-keyboard-response","103","96047","0.0-3.0-0.1-1.37","qheo","true"
"510.81999999587424","<svg height=""671"" width=""1230""><rect height=""67.1"" width=""67.1""y=""301.95""x=""307.5"" fill=""green""/></svg>","83","stim_present","test","green","left","html-keyboard-response","105","97060","0.0-3.0-0.1-1.38","qheo","true"
"420.6150000100024","<svg height=""671"" width=""1230""><rect height=""67.1"" width=""67.1""y=""301.95""x=""922.5"" fill=""green""/></svg>","83","stim_present","test","green","right","html-keyboard-response","107","97982","0.0-3.0-0.1-1.39","qheo","true"
"294.6000000083586","<svg height=""671"" width=""1230""><rect height=""67.1"" width=""67.1""y=""301.95""x=""581.45"" fill=""red""/></svg>","76","stim_present","test","red","middle","html-keyboard-response","109","98781","0.0-3.0-0.1-1.40","qheo","true"
"353.6899999890011","<svg height=""671"" width=""1230""><rect height=""67.1"" width=""67.1""y=""301.95""x=""307.5"" fill=""red""/></svg>","76","stim_present","test","red","left","html-keyboard-response","111","99636","0.0-3.0-0.1-1.41","qheo","true"
"371.6500000009546","<svg height=""671"" width=""1230""><rect height=""67.1"" width=""67.1""y=""301.95""x=""307.5"" fill=""green""/></svg>","83","stim_present","test","green","left","html-keyboard-response","113","100514","0.0-3.0-0.1-1.42","qheo","true"
"292.9300000105286","<svg height=""671"" width=""1230""><rect height=""67.1"" width=""67.1""y=""301.95""x=""922.5"" fill=""red""/></svg>","76","stim_present","test","red","right","html-keyboard-response","115","101312","0.0-3.0-0.1-1.43","qheo","true"
"439.16999999783","<svg height=""671"" width=""1230""><rect height=""67.1"" width=""67.1""y=""301.95""x=""307.5"" fill=""red""/></svg>","76","stim_present","test","red","left","html-keyboard-response","117","102258","0.0-3.0-0.1-1.44","qheo","true"
"304.0249999903608","<svg height=""671"" width=""1230""><rect height=""67.1"" width=""67.1""y=""301.95""x=""581.45"" fill=""red""/></svg>","76","stim_present","test","red","middle","html-keyboard-response","119","103067","0.0-3.0-0.1-1.45","qheo","true"
"371.79000000469387","<svg height=""671"" width=""1230""><rect height=""67.1"" width=""67.1""y=""301.95""x=""581.45"" fill=""green""/></svg>","83","stim_present","test","green","middle","html-keyboard-response","121","103945","0.0-3.0-0.1-1.46","qheo","true"
"346.6199999966193","<svg height=""671"" width=""1230""><rect height=""67.1"" width=""67.1""y=""301.95""x=""922.5"" fill=""green""/></svg>","83","stim_present","test","green","right","html-keyboard-response","123","104795","0.0-3.0-0.1-1.47","qheo","true"
"330.87000000523403","<svg height=""671"" width=""1230""><rect height=""67.1"" width=""67.1""y=""301.95""x=""922.5"" fill=""green""/></svg>","83","stim_present","test","green","right","html-keyboard-response","125","105632","0.0-3.0-0.1-1.48","qheo","true"
"328.89499999873806","<svg height=""671"" width=""1230""><rect height=""67.1"" width=""67.1""y=""301.95""x=""581.45"" fill=""green""/></svg>","83","stim_present","test","green","middle","html-keyboard-response","127","106465","0.0-3.0-0.1-1.49","qheo","true"
"304.7450000012759","<svg height=""671"" width=""1230""><rect height=""67.1"" width=""67.1""y=""301.95""x=""922.5"" fill=""red""/></svg>","76","stim_present","test","red","right","html-keyboard-response","129","107275","0.0-3.0-0.1-1.50","qheo","true"
"272.2199999989243","<svg height=""671"" width=""1230""><rect height=""67.1"" width=""67.1""y=""301.95""x=""307.5"" fill=""red""/></svg>","76","stim_present","test","red","left","html-keyboard-response","131","108051","0.0-3.0-0.1-1.51","qheo","true"
"339.44500000507105","<svg height=""671"" width=""1230""><rect height=""67.1"" width=""67.1""y=""301.95""x=""307.5"" fill=""green""/></svg>","83","stim_present","test","green","left","html-keyboard-response","133","108895","0.0-3.0-0.1-1.52","qheo","true"
"518.595000001369","<svg height=""671"" width=""1230""><rect height=""67.1"" width=""67.1""y=""301.95""x=""581.45"" fill=""red""/></svg>","76","stim_present","test","red","middle","html-keyboard-response","135","109919","0.0-3.0-0.1-1.53","qheo","true"
"270.2550000103656","<svg height=""671"" width=""1230""><rect height=""67.1"" width=""67.1""y=""301.95""x=""307.5"" fill=""green""/></svg>","83","stim_present","test","green","left","html-keyboard-response","137","110695","0.0-3.0-0.1-1.54","qheo","true"
"361.9349999935366","<svg height=""671"" width=""1230""><rect height=""67.1"" width=""67.1""y=""301.95""x=""922.5"" fill=""red""/></svg>","76","stim_present","test","red","right","html-keyboard-response","139","111561","0.0-3.0-0.1-1.55","qheo","true"
"386.17499999236315","<svg height=""671"" width=""1230""><rect height=""67.1"" width=""67.1""y=""301.95""x=""307.5"" fill=""red""/></svg>","76","stim_present","test","red","left","html-keyboard-response","141","112450","0.0-3.0-0.1-1.56","qheo","true"
"337.7499999915017","<svg height=""671"" width=""1230""><rect height=""67.1"" width=""67.1""y=""301.95""x=""581.45"" fill=""red""/></svg>","76","stim_present","test","red","middle","html-keyboard-response","143","113294","0.0-3.0-0.1-1.57","qheo","true"
"337.79499999945983","<svg height=""671"" width=""1230""><rect height=""67.1"" width=""67.1""y=""301.95""x=""922.5"" fill=""green""/></svg>","83","stim_present","test","green","right","html-keyboard-response","145","114137","0.0-3.0-0.1-1.58","qheo","true"
"296.2850000039907","<svg height=""671"" width=""1230""><rect height=""67.1"" width=""67.1""y=""301.95""x=""581.45"" fill=""green""/></svg>","83","stim_present","test","green","middle","html-keyboard-response","147","114937","0.0-3.0-0.1-1.59","qheo","true"
"430.08499999996275","<svg height=""671"" width=""1230""><rect height=""67.1"" width=""67.1""y=""301.95""x=""307.5"" fill=""red""/></svg>","76","stim_present","test","red","left","html-keyboard-response","149","115869","0.0-3.0-0.1-1.60","qheo","true"
"343.40500000689644","<svg height=""671"" width=""1230""><rect height=""67.1"" width=""67.1""y=""301.95""x=""581.45"" fill=""red""/></svg>","76","stim_present","test","red","middle","html-keyboard-response","151","116714","0.0-3.0-0.1-1.61","qheo","true"
"327.63500000874046","<svg height=""671"" width=""1230""><rect height=""67.1"" width=""67.1""y=""301.95""x=""922.5"" fill=""red""/></svg>","83","stim_present","test","red","right","html-keyboard-response","153","117546","0.0-3.0-0.1-1.62","qheo","false"
"342.5799999968149","<svg height=""671"" width=""1230""><rect height=""67.1"" width=""67.1""y=""301.95""x=""307.5"" fill=""green""/></svg>","83","stim_present","test","green","left","html-keyboard-response","155","118390","0.0-3.0-0.1-1.63","qheo","true"
"304.86499999824446","<svg height=""671"" width=""1230""><rect height=""67.1"" width=""67.1""y=""301.95""x=""581.45"" fill=""green""/></svg>","83","stim_present","test","green","middle","html-keyboard-response","157","119200","0.0-3.0-0.1-1.64","qheo","true"
"274.3300000001909","<svg height=""671"" width=""1230""><rect height=""67.1"" width=""67.1""y=""301.95""x=""922.5"" fill=""green""/></svg>","76","stim_present","test","green","right","html-keyboard-response","159","119977","0.0-3.0-0.1-1.65","qheo","false"
"486.23000000952743","<svg height=""671"" width=""1230""><rect height=""67.1"" width=""67.1""y=""301.95""x=""307.5"" fill=""red""/></svg>","76","stim_present","test","red","left","html-keyboard-response","161","120966","0.0-3.0-0.1-1.66","qheo","true"
"291.55500000342727","<svg height=""671"" width=""1230""><rect height=""67.1"" width=""67.1""y=""301.95""x=""922.5"" fill=""green""/></svg>","83","stim_present","test","green","right","html-keyboard-response","163","121764","0.0-3.0-0.1-1.67","qheo","true"
"286.1049999919487","<svg height=""671"" width=""1230""><rect height=""67.1"" width=""67.1""y=""301.95""x=""307.5"" fill=""green""/></svg>","83","stim_present","test","green","left","html-keyboard-response","165","122553","0.0-3.0-0.1-1.68","qheo","true"
"340.70499999506865","<svg height=""671"" width=""1230""><rect height=""67.1"" width=""67.1""y=""301.95""x=""922.5"" fill=""red""/></svg>","76","stim_present","test","red","right","html-keyboard-response","167","123396","0.0-3.0-0.1-1.69","qheo","true"
"296.05000000447035","<svg height=""671"" width=""1230""><rect height=""67.1"" width=""67.1""y=""301.95""x=""581.45"" fill=""red""/></svg>","76","stim_present","test","red","middle","html-keyboard-response","169","124195","0.0-3.0-0.1-1.70","qheo","true"
"318.45500000054017","<svg height=""671"" width=""1230""><rect height=""67.1"" width=""67.1""y=""301.95""x=""581.45"" fill=""green""/></svg>","83","stim_present","test","green","middle","html-keyboard-response","171","125017","0.0-3.0-0.1-1.71","qheo","true"
"383.0549999984214","<svg height=""671"" width=""1230""><rect height=""67.1"" width=""67.1""y=""301.95""x=""581.45"" fill=""red""/></svg>","76","stim_present","test","red","middle","html-keyboard-response","174","128448","0.0-3.0-0.2-1.72","qheo","true"
"348.84999999485444","<svg height=""671"" width=""1230""><rect height=""67.1"" width=""67.1""y=""301.95""x=""307.5"" fill=""green""/></svg>","83","stim_present","test","green","left","html-keyboard-response","176","129302","0.0-3.0-0.2-1.73","qheo","true"
"375.71500000194646","<svg height=""671"" width=""1230""><rect height=""67.1"" width=""67.1""y=""301.95""x=""922.5"" fill=""green""/></svg>","83","stim_present","test","green","right","html-keyboard-response","178","130180","0.0-3.0-0.2-1.74","qheo","true"
"360.3799999982584","<svg height=""671"" width=""1230""><rect height=""67.1"" width=""67.1""y=""301.95""x=""581.45"" fill=""green""/></svg>","83","stim_present","test","green","middle","html-keyboard-response","180","131046","0.0-3.0-0.2-1.75","qheo","true"
"272.2149999899557","<svg height=""671"" width=""1230""><rect height=""67.1"" width=""67.1""y=""301.95""x=""922.5"" fill=""red""/></svg>","76","stim_present","test","red","right","html-keyboard-response","182","131823","0.0-3.0-0.2-1.76","qheo","true"
"329.02499999909196","<svg height=""671"" width=""1230""><rect height=""67.1"" width=""67.1""y=""301.95""x=""307.5"" fill=""red""/></svg>","76","stim_present","test","red","left","html-keyboard-response","184","132655","0.0-3.0-0.2-1.77","qheo","true"
"329.33999999659136","<svg height=""671"" width=""1230""><rect height=""67.1"" width=""67.1""y=""301.95""x=""922.5"" fill=""red""/></svg>","76","stim_present","test","red","right","html-keyboard-response","186","133488","0.0-3.0-0.2-1.78","qheo","true"
"330.52499999757856","<svg height=""671"" width=""1230""><rect height=""67.1"" width=""67.1""y=""301.95""x=""922.5"" fill=""green""/></svg>","76","stim_present","test","green","right","html-keyboard-response","188","134320","0.0-3.0-0.2-1.79","qheo","false"
"439.5149999909336","<svg height=""671"" width=""1230""><rect height=""67.1"" width=""67.1""y=""301.95""x=""307.5"" fill=""green""/></svg>","83","stim_present","test","green","left","html-keyboard-response","190","135266","0.0-3.0-0.2-1.80","qheo","true"
"370.89999999443535","<svg height=""671"" width=""1230""><rect height=""67.1"" width=""67.1""y=""301.95""x=""307.5"" fill=""red""/></svg>","76","stim_present","test","red","left","html-keyboard-response","192","136143","0.0-3.0-0.2-1.81","qheo","true"
"342.34999999171123","<svg height=""671"" width=""1230""><rect height=""67.1"" width=""67.1""y=""301.95""x=""581.45"" fill=""red""/></svg>","76","stim_present","test","red","middle","html-keyboard-response","194","136986","0.0-3.0-0.2-1.82","qheo","true"
"327.3100000078557","<svg height=""671"" width=""1230""><rect height=""67.1"" width=""67.1""y=""301.95""x=""581.45"" fill=""green""/></svg>","83","stim_present","test","green","middle","html-keyboard-response","196","137819","0.0-3.0-0.2-1.83","qheo","true"
"307.26999999023974","<svg height=""671"" width=""1230""><rect height=""67.1"" width=""67.1""y=""301.95""x=""581.45"" fill=""green""/></svg>","83","stim_present","test","green","middle","html-keyboard-response","198","138629","0.0-3.0-0.2-1.84","qheo","true"
"577.1749999985332","<svg height=""671"" width=""1230""><rect height=""67.1"" width=""67.1""y=""301.95""x=""307.5"" fill=""red""/></svg>","76","stim_present","test","red","left","html-keyboard-response","200","139709","0.0-3.0-0.2-1.85","qheo","true"
"496.5249999950174","<svg height=""671"" width=""1230""><rect height=""67.1"" width=""67.1""y=""301.95""x=""307.5"" fill=""green""/></svg>","83","stim_present","test","green","left","html-keyboard-response","202","140710","0.0-3.0-0.2-1.86","qheo","true"
"352.7299999987008","<svg height=""671"" width=""1230""><rect height=""67.1"" width=""67.1""y=""301.95""x=""922.5"" fill=""red""/></svg>","76","stim_present","test","red","right","html-keyboard-response","204","141564","0.0-3.0-0.2-1.87","qheo","true"
"327.7749999979278","<svg height=""671"" width=""1230""><rect height=""67.1"" width=""67.1""y=""301.95""x=""581.45"" fill=""red""/></svg>","76","stim_present","test","red","middle","html-keyboard-response","206","142398","0.0-3.0-0.2-1.88","qheo","true"
"427.7949999959674","<svg height=""671"" width=""1230""><rect height=""67.1"" width=""67.1""y=""301.95""x=""922.5"" fill=""green""/></svg>","83","stim_present","test","green","right","html-keyboard-response","208","143331","0.0-3.0-0.2-1.89","qheo","true"
"315.02500000351574","<svg height=""671"" width=""1230""><rect height=""67.1"" width=""67.1""y=""301.95""x=""581.45"" fill=""green""/></svg>","83","stim_present","test","green","middle","html-keyboard-response","210","144153","0.0-3.0-0.2-1.90","qheo","true"
"371.6749999875901","<svg height=""671"" width=""1230""><rect height=""67.1"" width=""67.1""y=""301.95""x=""581.45"" fill=""red""/></svg>","76","stim_present","test","red","middle","html-keyboard-response","212","145032","0.0-3.0-0.2-1.91","qheo","true"
"395.22999999462627","<svg height=""671"" width=""1230""><rect height=""67.1"" width=""67.1""y=""301.95""x=""307.5"" fill=""red""/></svg>","76","stim_present","test","red","left","html-keyboard-response","214","145931","0.0-3.0-0.2-1.92","qheo","true"
"303.4250000055181","<svg height=""671"" width=""1230""><rect height=""67.1"" width=""67.1""y=""301.95""x=""307.5"" fill=""green""/></svg>","83","stim_present","test","green","left","html-keyboard-response","216","146740","0.0-3.0-0.2-1.93","qheo","true"
"386.3649999984773","<svg height=""671"" width=""1230""><rect height=""67.1"" width=""67.1""y=""301.95""x=""922.5"" fill=""red""/></svg>","76","stim_present","test","red","right","html-keyboard-response","218","147629","0.0-3.0-0.2-1.94","qheo","true"
"428.12000001140404","<svg height=""671"" width=""1230""><rect height=""67.1"" width=""67.1""y=""301.95""x=""922.5"" fill=""green""/></svg>","83","stim_present","test","green","right","html-keyboard-response","220","148563","0.0-3.0-0.2-1.95","qheo","true"
"431.57000000064727","<svg height=""671"" width=""1230""><rect height=""67.1"" width=""67.1""y=""301.95""x=""581.45"" fill=""red""/></svg>","76","stim_present","test","red","middle","html-keyboard-response","222","149496","0.0-3.0-0.2-1.96","qheo","true"
"374.1299999965122","<svg height=""671"" width=""1230""><rect height=""67.1"" width=""67.1""y=""301.95""x=""922.5"" fill=""red""/></svg>","76","stim_present","test","red","right","html-keyboard-response","224","150374","0.0-3.0-0.2-1.97","qheo","true"
"506.3450000016019","<svg height=""671"" width=""1230""><rect height=""67.1"" width=""67.1""y=""301.95""x=""307.5"" fill=""red""/></svg>","76","stim_present","test","red","left","html-keyboard-response","226","151386","0.0-3.0-0.2-1.98","qheo","true"
"308.82999999448657","<svg height=""671"" width=""1230""><rect height=""67.1"" width=""67.1""y=""301.95""x=""307.5"" fill=""green""/></svg>","83","stim_present","test","green","left","html-keyboard-response","228","152196","0.0-3.0-0.2-1.99","qheo","true"
"317.30499998957384","<svg height=""671"" width=""1230""><rect height=""67.1"" width=""67.1""y=""301.95""x=""581.45"" fill=""green""/></svg>","83","stim_present","test","green","middle","html-keyboard-response","230","153018","0.0-3.0-0.2-1.100","qheo","true"
"273.62999999604654","<svg height=""671"" width=""1230""><rect height=""67.1"" width=""67.1""y=""301.95""x=""922.5"" fill=""green""/></svg>","76","stim_present","test","green","right","html-keyboard-response","232","153794","0.0-3.0-0.2-1.101","qheo","false"
"341.20500000426546","<svg height=""671"" width=""1230""><rect height=""67.1"" width=""67.1""y=""301.95""x=""922.5"" fill=""green""/></svg>","83","stim_present","test","green","right","html-keyboard-response","234","154638","0.0-3.0-0.2-1.102","qheo","true"
"341.8600000004517","<svg height=""671"" width=""1230""><rect height=""67.1"" width=""67.1""y=""301.95""x=""307.5"" fill=""green""/></svg>","83","stim_present","test","green","left","html-keyboard-response","236","155482","0.0-3.0-0.2-1.103","qheo","true"
"363.64500000490807","<svg height=""671"" width=""1230""><rect height=""67.1"" width=""67.1""y=""301.95""x=""581.45"" fill=""green""/></svg>","83","stim_present","test","green","middle","html-keyboard-response","238","156348","0.0-3.0-0.2-1.104","qheo","true"
"417.7099999942584","<svg height=""671"" width=""1230""><rect height=""67.1"" width=""67.1""y=""301.95""x=""922.5"" fill=""red""/></svg>","76","stim_present","test","red","right","html-keyboard-response","240","157270","0.0-3.0-0.2-1.105","qheo","true"
"320.0349999970058","<svg height=""671"" width=""1230""><rect height=""67.1"" width=""67.1""y=""301.95""x=""307.5"" fill=""red""/></svg>","76","stim_present","test","red","left","html-keyboard-response","242","158092","0.0-3.0-0.2-1.106","qheo","true"
"307.6299999956973","<svg height=""671"" width=""1230""><rect height=""67.1"" width=""67.1""y=""301.95""x=""581.45"" fill=""red""/></svg>","76","stim_present","test","red","middle","html-keyboard-response","244","158901","0.0-3.0-0.2-1.107","qheo","true"
"360.8399999939138","<svg height=""671"" width=""1230""><rect height=""67.1"" width=""67.1""y=""301.95""x=""581.45"" fill=""green""/></svg>","76","stim_present","test","green","middle","html-keyboard-response","247","163132","0.0-3.0-0.3-1.108","qheo","false"
"394.3299999955343","<svg height=""671"" width=""1230""><rect height=""67.1"" width=""67.1""y=""301.95""x=""307.5"" fill=""red""/></svg>","76","stim_present","test","red","left","html-keyboard-response","249","164031","0.0-3.0-0.3-1.109","qheo","true"
"327.22999999532476","<svg height=""671"" width=""1230""><rect height=""67.1"" width=""67.1""y=""301.95""x=""922.5"" fill=""green""/></svg>","83","stim_present","test","green","right","html-keyboard-response","251","164864","0.0-3.0-0.3-1.110","qheo","true"
"339.4399999961024","<svg height=""671"" width=""1230""><rect height=""67.1"" width=""67.1""y=""301.95""x=""581.45"" fill=""red""/></svg>","76","stim_present","test","red","middle","html-keyboard-response","253","165708","0.0-3.0-0.3-1.111","qheo","true"
"328.9400000066962","<svg height=""671"" width=""1230""><rect height=""67.1"" width=""67.1""y=""301.95""x=""922.5"" fill=""red""/></svg>","76","stim_present","test","red","right","html-keyboard-response","255","166541","0.0-3.0-0.3-1.112","qheo","true"
"284.1199999966193","<svg height=""671"" width=""1230""><rect height=""67.1"" width=""67.1""y=""301.95""x=""307.5"" fill=""green""/></svg>","83","stim_present","test","green","left","html-keyboard-response","257","167328","0.0-3.0-0.3-1.113","qheo","true"
"408.0650000105379","<svg height=""671"" width=""1230""><rect height=""67.1"" width=""67.1""y=""301.95""x=""581.45"" fill=""green""/></svg>","83","stim_present","test","green","middle","html-keyboard-response","259","168239","0.0-3.0-0.3-1.114","qheo","true"
"428.9799999969546","<svg height=""671"" width=""1230""><rect height=""67.1"" width=""67.1""y=""301.95""x=""922.5"" fill=""green""/></svg>","83","stim_present","test","green","right","html-keyboard-response","261","169173","0.0-3.0-0.3-1.115","qheo","true"
"215.714999998454","<svg height=""671"" width=""1230""><rect height=""67.1"" width=""67.1""y=""301.95""x=""307.5"" fill=""red""/></svg>","76","stim_present","test","red","left","html-keyboard-response","263","169892","0.0-3.0-0.3-1.116","qheo","true"
"270.81499999621883","<svg height=""671"" width=""1230""><rect height=""67.1"" width=""67.1""y=""301.95""x=""581.45"" fill=""red""/></svg>","76","stim_present","test","red","middle","html-keyboard-response","265","170669","0.0-3.0-0.3-1.117","qheo","true"
"306.1499999894295","<svg height=""671"" width=""1230""><rect height=""67.1"" width=""67.1""y=""301.95""x=""307.5"" fill=""green""/></svg>","83","stim_present","test","green","left","html-keyboard-response","267","171479","0.0-3.0-0.3-1.118","qheo","true"
"363.1699999968987","<svg height=""671"" width=""1230""><rect height=""67.1"" width=""67.1""y=""301.95""x=""922.5"" fill=""red""/></svg>","76","stim_present","test","red","right","html-keyboard-response","269","172345","0.0-3.0-0.3-1.119","qheo","true"
"361.68000000179745","<svg height=""671"" width=""1230""><rect height=""67.1"" width=""67.1""y=""301.95""x=""581.45"" fill=""green""/></svg>","83","stim_present","test","green","middle","html-keyboard-response","271","173211","0.0-3.0-0.3-1.120","qheo","true"
"282.5850000081118","<svg height=""671"" width=""1230""><rect height=""67.1"" width=""67.1""y=""301.95""x=""307.5"" fill=""green""/></svg>","83","stim_present","test","green","left","html-keyboard-response","273","173999","0.0-3.0-0.3-1.121","qheo","true"
"326.5099999989616","<svg height=""671"" width=""1230""><rect height=""67.1"" width=""67.1""y=""301.95""x=""922.5"" fill=""red""/></svg>","76","stim_present","test","red","right","html-keyboard-response","275","174832","0.0-3.0-0.3-1.122","qheo","true"
"405.5850000004284","<svg height=""671"" width=""1230""><rect height=""67.1"" width=""67.1""y=""301.95""x=""922.5"" fill=""green""/></svg>","83","stim_present","test","green","right","html-keyboard-response","277","175743","0.0-3.0-0.3-1.123","qheo","true"
"308.78500000108033","<svg height=""671"" width=""1230""><rect height=""67.1"" width=""67.1""y=""301.95""x=""581.45"" fill=""red""/></svg>","83","stim_present","test","red","middle","html-keyboard-response","279","176554","0.0-3.0-0.3-1.124","qheo","false"
"326.4749999943888","<svg height=""671"" width=""1230""><rect height=""67.1"" width=""67.1""y=""301.95""x=""307.5"" fill=""red""/></svg>","76","stim_present","test","red","left","html-keyboard-response","281","177385","0.0-3.0-0.3-1.125","qheo","true"
"361.25000000174623","<svg height=""671"" width=""1230""><rect height=""67.1"" width=""67.1""y=""301.95""x=""581.45"" fill=""green""/></svg>","83","stim_present","test","green","middle","html-keyboard-response","283","178251","0.0-3.0-0.3-1.126","qheo","true"
"351.66999998909887","<svg height=""671"" width=""1230""><rect height=""67.1"" width=""67.1""y=""301.95""x=""307.5"" fill=""green""/></svg>","83","stim_present","test","green","left","html-keyboard-response","285","179107","0.0-3.0-0.3-1.127","qheo","true"
"360.450000007404","<svg height=""671"" width=""1230""><rect height=""67.1"" width=""67.1""y=""301.95""x=""307.5"" fill=""red""/></svg>","76","stim_present","test","red","left","html-keyboard-response","287","179973","0.0-3.0-0.3-1.128","qheo","true"
"507.0899999991525","<svg height=""671"" width=""1230""><rect height=""67.1"" width=""67.1""y=""301.95""x=""922.5"" fill=""green""/></svg>","83","stim_present","test","green","right","html-keyboard-response","289","180986","0.0-3.0-0.3-1.129","qheo","true"
"308.15500000608154","<svg height=""671"" width=""1230""><rect height=""67.1"" width=""67.1""y=""301.95""x=""581.45"" fill=""red""/></svg>","76","stim_present","test","red","middle","html-keyboard-response","291","181795","0.0-3.0-0.3-1.130","qheo","true"
"350.56999999505933","<svg height=""671"" width=""1230""><rect height=""67.1"" width=""67.1""y=""301.95""x=""922.5"" fill=""red""/></svg>","76","stim_present","test","red","right","html-keyboard-response","293","182649","0.0-3.0-0.3-1.131","qheo","true"
"372.799999997369","<svg height=""671"" width=""1230""><rect height=""67.1"" width=""67.1""y=""301.95""x=""581.45"" fill=""red""/></svg>","83","stim_present","test","red","middle","html-keyboard-response","295","183528","0.0-3.0-0.3-1.132","qheo","false"
"405.3849999909289","<svg height=""671"" width=""1230""><rect height=""67.1"" width=""67.1""y=""301.95""x=""581.45"" fill=""green""/></svg>","83","stim_present","test","green","middle","html-keyboard-response","297","184439","0.0-3.0-0.3-1.133","qheo","true"
"339.2199999943841","<svg height=""671"" width=""1230""><rect height=""67.1"" width=""67.1""y=""301.95""x=""922.5"" fill=""red""/></svg>","76","stim_present","test","red","right","html-keyboard-response","299","185283","0.0-3.0-0.3-1.134","qheo","true"
"373.2799999997951","<svg height=""671"" width=""1230""><rect height=""67.1"" width=""67.1""y=""301.95""x=""307.5"" fill=""green""/></svg>","83","stim_present","test","green","left","html-keyboard-response","301","186160","0.0-3.0-0.3-1.135","qheo","true"
"352.8599999990547","<svg height=""671"" width=""1230""><rect height=""67.1"" width=""67.1""y=""301.95""x=""307.5"" fill=""red""/></svg>","83","stim_present","test","red","left","html-keyboard-response","303","187016","0.0-3.0-0.3-1.136","qheo","false"
"365.20000000018626","<svg height=""671"" width=""1230""><rect height=""67.1"" width=""67.1""y=""301.95""x=""922.5"" fill=""green""/></svg>","83","stim_present","test","green","right","html-keyboard-response","305","187885","0.0-3.0-0.3-1.137","qheo","true"
"401.55999999842606","<svg height=""671"" width=""1230""><rect height=""67.1"" width=""67.1""y=""301.95""x=""922.5"" fill=""red""/></svg>","76","stim_present","test","red","right","html-keyboard-response","307","188793","0.0-3.0-0.3-1.138","qheo","true"
"387.2899999987567","<svg height=""671"" width=""1230""><rect height=""67.1"" width=""67.1""y=""301.95""x=""922.5"" fill=""green""/></svg>","76","stim_present","test","green","right","html-keyboard-response","309","189682","0.0-3.0-0.3-1.139","qheo","false"
"386.1099999921862","<svg height=""671"" width=""1230""><rect height=""67.1"" width=""67.1""y=""301.95""x=""581.45"" fill=""green""/></svg>","83","stim_present","test","green","middle","html-keyboard-response","311","190570","0.0-3.0-0.3-1.140","qheo","true"
"418.88500000641216","<svg height=""671"" width=""1230""><rect height=""67.1"" width=""67.1""y=""301.95""x=""307.5"" fill=""green""/></svg>","83","stim_present","test","green","left","html-keyboard-response","313","191493","0.0-3.0-0.3-1.141","qheo","true"
"349.11000001011416","<svg height=""671"" width=""1230""><rect height=""67.1"" width=""67.1""y=""301.95""x=""307.5"" fill=""red""/></svg>","76","stim_present","test","red","left","html-keyboard-response","315","192348","0.0-3.0-0.3-1.142","qheo","true"
"518.0100000143284","<svg height=""671"" width=""1230""><rect height=""67.1"" width=""67.1""y=""301.95""x=""581.45"" fill=""red""/></svg>","76","stim_present","test","red","middle","html-keyboard-response","317","193371","0.0-3.0-0.3-1.143","qheo","true"
