"rt","stimulus","key_press","type","part","color","position","trial_type","trial_index","time_elapsed","internal_node_id","subject","accuracy"
"508.5149999940768","<svg height=""683"" width=""1390""><rect height=""68.3"" width=""68.3""y=""307.35""x=""1042.5"" fill=""red""/></svg>","76","stim_present","training","red","right","html-keyboard-response","3","48377","0.0-2.0-0.0-1.0","6bye","true"
"801.7600000021048","<svg height=""683"" width=""1390""><rect height=""68.3"" width=""68.3""y=""307.35""x=""660.85"" fill=""green""/></svg>","83","stim_present","training","green","middle","html-keyboard-response","5","49681","0.0-2.0-0.0-1.1","6bye","true"
"512.3899999889545","<svg height=""683"" width=""1390""><rect height=""68.3"" width=""68.3""y=""307.35""x=""1042.5"" fill=""green""/></svg>","83","stim_present","training","green","right","html-keyboard-response","7","50697","0.0-2.0-0.0-1.2","6bye","true"
"710.239999985788","<svg height=""683"" width=""1390""><rect height=""68.3"" width=""68.3""y=""307.35""x=""347.5"" fill=""red""/></svg>","76","stim_present","training","red","left","html-keyboard-response","9","51913","0.0-2.0-0.0-1.3","6bye","true"
"936.0049999959301","<svg height=""683"" width=""1390""><rect height=""68.3"" width=""68.3""y=""307.35""x=""347.5"" fill=""green""/></svg>","83","stim_present","training","green","left","html-keyboard-response","11","53353","0.0-2.0-0.0-1.4","6bye","true"
"717.9349999933038","<svg height=""683"" width=""1390""><rect height=""68.3"" width=""68.3""y=""307.35""x=""660.85"" fill=""red""/></svg>","76","stim_present","training","red","middle","html-keyboard-response","13","54577","0.0-2.0-0.0-1.5","6bye","true"
"470.0449999945704","<svg height=""683"" width=""1390""><rect height=""68.3"" width=""68.3""y=""307.35""x=""347.5"" fill=""red""/></svg>","76","stim_present","training","red","left","html-keyboard-response","15","55553","0.0-2.0-0.0-1.6","6bye","true"
"453.9949999889359","<svg height=""683"" width=""1390""><rect height=""68.3"" width=""68.3""y=""307.35""x=""1042.5"" fill=""red""/></svg>","76","stim_present","training","red","right","html-keyboard-response","17","56513","0.0-2.0-0.0-1.7","6bye","true"
"585.9550000168383","<svg height=""683"" width=""1390""><rect height=""68.3"" width=""68.3""y=""307.35""x=""1042.5"" fill=""green""/></svg>","83","stim_present","training","green","right","html-keyboard-response","19","57601","0.0-2.0-0.0-1.8","6bye","true"
"509.1400000092108","<svg height=""683"" width=""1390""><rect height=""68.3"" width=""68.3""y=""307.35""x=""660.85"" fill=""green""/></svg>","83","stim_present","training","green","middle","html-keyboard-response","21","58616","0.0-2.0-0.0-1.9","6bye","true"
"552.3350000148639","<svg height=""683"" width=""1390""><rect height=""68.3"" width=""68.3""y=""307.35""x=""660.85"" fill=""red""/></svg>","76","stim_present","training","red","middle","html-keyboard-response","23","59672","0.0-2.0-0.0-1.10","6bye","true"
"491.4100000169128","<svg height=""683"" width=""1390""><rect height=""68.3"" width=""68.3""y=""307.35""x=""347.5"" fill=""green""/></svg>","83","stim_present","training","green","left","html-keyboard-response","25","60665","0.0-2.0-0.0-1.11","6bye","true"
"420.8949999883771","<svg height=""683"" width=""1390""><rect height=""68.3"" width=""68.3""y=""307.35""x=""660.85"" fill=""green""/></svg>","83","stim_present","test","green","middle","html-keyboard-response","28","69136","0.0-3.0-0.0-1.0","6bye","true"
"426.60000000614673","<svg height=""683"" width=""1390""><rect height=""68.3"" width=""68.3""y=""307.35""x=""1042.5"" fill=""red""/></svg>","76","stim_present","test","red","right","html-keyboard-response","30","70064","0.0-3.0-0.0-1.1","6bye","true"
"322.2949999908451","<svg height=""683"" width=""1390""><rect height=""68.3"" width=""68.3""y=""307.35""x=""347.5"" fill=""green""/></svg>","83","stim_present","test","green","left","html-keyboard-response","32","70888","0.0-3.0-0.0-1.2","6bye","true"
"486.58999998588115","<svg height=""683"" width=""1390""><rect height=""68.3"" width=""68.3""y=""307.35""x=""347.5"" fill=""red""/></svg>","76","stim_present","test","red","left","html-keyboard-response","34","71880","0.0-3.0-0.0-1.3","6bye","true"
"390.11500001652166","<svg height=""683"" width=""1390""><rect height=""68.3"" width=""68.3""y=""307.35""x=""660.85"" fill=""red""/></svg>","76","stim_present","test","red","middle","html-keyboard-response","36","72775","0.0-3.0-0.0-1.4","6bye","true"
"453.6599999992177","<svg height=""683"" width=""1390""><rect height=""68.3"" width=""68.3""y=""307.35""x=""1042.5"" fill=""green""/></svg>","83","stim_present","test","green","right","html-keyboard-response","38","73735","0.0-3.0-0.0-1.5","6bye","true"
"410.52000000490807","<svg height=""683"" width=""1390""><rect height=""68.3"" width=""68.3""y=""307.35""x=""1042.5"" fill=""red""/></svg>","76","stim_present","test","red","right","html-keyboard-response","40","74647","0.0-3.0-0.0-1.6","6bye","true"
"498.4950000070967","<svg height=""683"" width=""1390""><rect height=""68.3"" width=""68.3""y=""307.35""x=""660.85"" fill=""green""/></svg>","83","stim_present","test","green","middle","html-keyboard-response","42","75647","0.0-3.0-0.0-1.7","6bye","true"
"399.2100000032224","<svg height=""683"" width=""1390""><rect height=""68.3"" width=""68.3""y=""307.35""x=""1042.5"" fill=""green""/></svg>","83","stim_present","test","green","right","html-keyboard-response","44","76551","0.0-3.0-0.0-1.8","6bye","true"
"370.75000000186265","<svg height=""683"" width=""1390""><rect height=""68.3"" width=""68.3""y=""307.35""x=""347.5"" fill=""green""/></svg>","83","stim_present","test","green","left","html-keyboard-response","46","77424","0.0-3.0-0.0-1.9","6bye","true"
"369.63500001002103","<svg height=""683"" width=""1390""><rect height=""68.3"" width=""68.3""y=""307.35""x=""660.85"" fill=""red""/></svg>","76","stim_present","test","red","middle","html-keyboard-response","48","78296","0.0-3.0-0.0-1.10","6bye","true"
"373.8699999812525","<svg height=""683"" width=""1390""><rect height=""68.3"" width=""68.3""y=""307.35""x=""347.5"" fill=""red""/></svg>","76","stim_present","test","red","left","html-keyboard-response","50","79176","0.0-3.0-0.0-1.11","6bye","true"
"389.90999999805354","<svg height=""683"" width=""1390""><rect height=""68.3"" width=""68.3""y=""307.35""x=""660.85"" fill=""red""/></svg>","76","stim_present","test","red","middle","html-keyboard-response","52","80071","0.0-3.0-0.0-1.12","6bye","true"
"425.0449999817647","<svg height=""683"" width=""1390""><rect height=""68.3"" width=""68.3""y=""307.35""x=""347.5"" fill=""green""/></svg>","83","stim_present","test","green","left","html-keyboard-response","54","81000","0.0-3.0-0.0-1.13","6bye","true"
"341.7300000146497","<svg height=""683"" width=""1390""><rect height=""68.3"" width=""68.3""y=""307.35""x=""1042.5"" fill=""red""/></svg>","76","stim_present","test","red","right","html-keyboard-response","56","81847","0.0-3.0-0.0-1.14","6bye","true"
"439.41999998060055","<svg height=""683"" width=""1390""><rect height=""68.3"" width=""68.3""y=""307.35""x=""1042.5"" fill=""green""/></svg>","83","stim_present","test","green","right","html-keyboard-response","58","82792","0.0-3.0-0.0-1.15","6bye","true"
"333.8800000201445","<svg height=""683"" width=""1390""><rect height=""68.3"" width=""68.3""y=""307.35""x=""347.5"" fill=""red""/></svg>","76","stim_present","test","red","left","html-keyboard-response","60","83631","0.0-3.0-0.0-1.16","6bye","true"
"488.5700000158977","<svg height=""683"" width=""1390""><rect height=""68.3"" width=""68.3""y=""307.35""x=""660.85"" fill=""green""/></svg>","83","stim_present","test","green","middle","html-keyboard-response","62","84623","0.0-3.0-0.0-1.17","6bye","true"
"418.7850000162143","<svg height=""683"" width=""1390""><rect height=""68.3"" width=""68.3""y=""307.35""x=""660.85"" fill=""red""/></svg>","76","stim_present","test","red","middle","html-keyboard-response","64","85543","0.0-3.0-0.0-1.18","6bye","true"
"423.7250000005588","<svg height=""683"" width=""1390""><rect height=""68.3"" width=""68.3""y=""307.35""x=""347.5"" fill=""red""/></svg>","76","stim_present","test","red","left","html-keyboard-response","66","86471","0.0-3.0-0.0-1.19","6bye","true"
"435.910000000149","<svg height=""683"" width=""1390""><rect height=""68.3"" width=""68.3""y=""307.35""x=""1042.5"" fill=""green""/></svg>","83","stim_present","test","green","right","html-keyboard-response","68","87415","0.0-3.0-0.0-1.20","6bye","true"
"352.454999985639","<svg height=""683"" width=""1390""><rect height=""68.3"" width=""68.3""y=""307.35""x=""660.85"" fill=""green""/></svg>","83","stim_present","test","green","middle","html-keyboard-response","70","88271","0.0-3.0-0.0-1.21","6bye","true"
"311.9799999985844","<svg height=""683"" width=""1390""><rect height=""68.3"" width=""68.3""y=""307.35""x=""347.5"" fill=""green""/></svg>","83","stim_present","test","green","left","html-keyboard-response","72","89088","0.0-3.0-0.0-1.22","6bye","true"
"390.994999994291","<svg height=""683"" width=""1390""><rect height=""68.3"" width=""68.3""y=""307.35""x=""1042.5"" fill=""red""/></svg>","76","stim_present","test","red","right","html-keyboard-response","74","89983","0.0-3.0-0.0-1.23","6bye","true"
"335.98000000347383","<svg height=""683"" width=""1390""><rect height=""68.3"" width=""68.3""y=""307.35""x=""1042.5"" fill=""red""/></svg>","76","stim_present","test","red","right","html-keyboard-response","76","90823","0.0-3.0-0.0-1.24","6bye","true"
"359.9099999992177","<svg height=""683"" width=""1390""><rect height=""68.3"" width=""68.3""y=""307.35""x=""347.5"" fill=""red""/></svg>","76","stim_present","test","red","left","html-keyboard-response","78","91687","0.0-3.0-0.0-1.25","6bye","true"
"457.4200000206474","<svg height=""683"" width=""1390""><rect height=""68.3"" width=""68.3""y=""307.35""x=""660.85"" fill=""green""/></svg>","83","stim_present","test","green","middle","html-keyboard-response","80","92647","0.0-3.0-0.0-1.26","6bye","true"
"344.0699999919161","<svg height=""683"" width=""1390""><rect height=""68.3"" width=""68.3""y=""307.35""x=""347.5"" fill=""green""/></svg>","76","stim_present","test","green","left","html-keyboard-response","82","93495","0.0-3.0-0.0-1.27","6bye","false"
"574.2249999893829","<svg height=""683"" width=""1390""><rect height=""68.3"" width=""68.3""y=""307.35""x=""660.85"" fill=""red""/></svg>","76","stim_present","test","red","middle","html-keyboard-response","84","94575","0.0-3.0-0.0-1.28","6bye","true"
"1053.2300000195391","<svg height=""683"" width=""1390""><rect height=""68.3"" width=""68.3""y=""307.35""x=""1042.5"" fill=""green""/></svg>","83","stim_present","test","green","right","html-keyboard-response","86","96135","0.0-3.0-0.0-1.29","6bye","true"
"350.269999995362","<svg height=""683"" width=""1390""><rect height=""68.3"" width=""68.3""y=""307.35""x=""660.85"" fill=""green""/></svg>","83","stim_present","test","green","middle","html-keyboard-response","88","96991","0.0-3.0-0.0-1.30","6bye","true"
"306.6650000109803","<svg height=""683"" width=""1390""><rect height=""68.3"" width=""68.3""y=""307.35""x=""347.5"" fill=""green""/></svg>","83","stim_present","test","green","left","html-keyboard-response","90","97799","0.0-3.0-0.0-1.31","6bye","true"
"326.19000002159737","<svg height=""683"" width=""1390""><rect height=""68.3"" width=""68.3""y=""307.35""x=""347.5"" fill=""red""/></svg>","83","stim_present","test","red","left","html-keyboard-response","92","98631","0.0-3.0-0.0-1.32","6bye","false"
"974.6250000025611","<svg height=""683"" width=""1390""><rect height=""68.3"" width=""68.3""y=""307.35""x=""660.85"" fill=""red""/></svg>","76","stim_present","test","red","middle","html-keyboard-response","94","100112","0.0-3.0-0.0-1.33","6bye","true"
"734.6700000052806","<svg height=""683"" width=""1390""><rect height=""68.3"" width=""68.3""y=""307.35""x=""1042.5"" fill=""red""/></svg>","76","stim_present","test","red","right","html-keyboard-response","96","101350","0.0-3.0-0.0-1.34","6bye","true"
"459.28000001003966","<svg height=""683"" width=""1390""><rect height=""68.3"" width=""68.3""y=""307.35""x=""1042.5"" fill=""green""/></svg>","83","stim_present","test","green","right","html-keyboard-response","98","102311","0.0-3.0-0.0-1.35","6bye","true"
"474.4350000109989","<svg height=""683"" width=""1390""><rect height=""68.3"" width=""68.3""y=""307.35""x=""660.85"" fill=""red""/></svg>","76","stim_present","test","red","middle","html-keyboard-response","101","104783","0.0-3.0-0.1-1.36","6bye","true"
"342.27000002283603","<svg height=""683"" width=""1390""><rect height=""68.3"" width=""68.3""y=""307.35""x=""1042.5"" fill=""red""/></svg>","76","stim_present","test","red","right","html-keyboard-response","103","105631","0.0-3.0-0.1-1.37","6bye","true"
"362.23999998765066","<svg height=""683"" width=""1390""><rect height=""68.3"" width=""68.3""y=""307.35""x=""347.5"" fill=""red""/></svg>","76","stim_present","test","red","left","html-keyboard-response","105","106495","0.0-3.0-0.1-1.38","6bye","true"
"573.8650000130292","<svg height=""683"" width=""1390""><rect height=""68.3"" width=""68.3""y=""307.35""x=""660.85"" fill=""green""/></svg>","83","stim_present","test","green","middle","html-keyboard-response","107","107575","0.0-3.0-0.1-1.39","6bye","true"
"326.4750000089407","<svg height=""683"" width=""1390""><rect height=""68.3"" width=""68.3""y=""307.35""x=""347.5"" fill=""green""/></svg>","83","stim_present","test","green","left","html-keyboard-response","109","108407","0.0-3.0-0.1-1.40","6bye","true"
"461.85999998124316","<svg height=""683"" width=""1390""><rect height=""68.3"" width=""68.3""y=""307.35""x=""1042.5"" fill=""green""/></svg>","83","stim_present","test","green","right","html-keyboard-response","111","109375","0.0-3.0-0.1-1.41","6bye","true"
"438.47500000265427","<svg height=""683"" width=""1390""><rect height=""68.3"" width=""68.3""y=""307.35""x=""347.5"" fill=""red""/></svg>","76","stim_present","test","red","left","html-keyboard-response","113","110319","0.0-3.0-0.1-1.42","6bye","true"
"1749.4249999872409","<svg height=""683"" width=""1390""><rect height=""68.3"" width=""68.3""y=""307.35""x=""1042.5"" fill=""red""/></svg>","76","stim_present","test","red","right","html-keyboard-response","115","112575","0.0-3.0-0.1-1.43","6bye","true"
"609.3850000179373","<svg height=""683"" width=""1390""><rect height=""68.3"" width=""68.3""y=""307.35""x=""347.5"" fill=""green""/></svg>","83","stim_present","test","green","left","html-keyboard-response","117","113687","0.0-3.0-0.1-1.44","6bye","true"
"2871.0900000005495","<svg height=""683"" width=""1390""><rect height=""68.3"" width=""68.3""y=""307.35""x=""1042.5"" fill=""green""/></svg>","83","stim_present","test","green","right","html-keyboard-response","119","117063","0.0-3.0-0.1-1.45","6bye","true"
"361.4100000122562","<svg height=""683"" width=""1390""><rect height=""68.3"" width=""68.3""y=""307.35""x=""660.85"" fill=""green""/></svg>","83","stim_present","test","green","middle","html-keyboard-response","121","117927","0.0-3.0-0.1-1.46","6bye","true"
"494.0700000151992","<svg height=""683"" width=""1390""><rect height=""68.3"" width=""68.3""y=""307.35""x=""660.85"" fill=""red""/></svg>","76","stim_present","test","red","middle","html-keyboard-response","123","118927","0.0-3.0-0.1-1.47","6bye","true"
"790.0050000171177","<svg height=""683"" width=""1390""><rect height=""68.3"" width=""68.3""y=""307.35""x=""347.5"" fill=""green""/></svg>","83","stim_present","test","green","left","html-keyboard-response","125","120223","0.0-3.0-0.1-1.48","6bye","true"
"599.6799999848008","<svg height=""683"" width=""1390""><rect height=""68.3"" width=""68.3""y=""307.35""x=""1042.5"" fill=""red""/></svg>","76","stim_present","test","red","right","html-keyboard-response","127","121327","0.0-3.0-0.1-1.49","6bye","true"
"365.3950000007171","<svg height=""683"" width=""1390""><rect height=""68.3"" width=""68.3""y=""307.35""x=""347.5"" fill=""red""/></svg>","76","stim_present","test","red","left","html-keyboard-response","129","122199","0.0-3.0-0.1-1.50","6bye","true"
"422.0299999869894","<svg height=""683"" width=""1390""><rect height=""68.3"" width=""68.3""y=""307.35""x=""660.85"" fill=""green""/></svg>","83","stim_present","test","green","middle","html-keyboard-response","131","123127","0.0-3.0-0.1-1.51","6bye","true"
"414.27499998826534","<svg height=""683"" width=""1390""><rect height=""68.3"" width=""68.3""y=""307.35""x=""1042.5"" fill=""green""/></svg>","83","stim_present","test","green","right","html-keyboard-response","133","124047","0.0-3.0-0.1-1.52","6bye","true"
"513.3599999826401","<svg height=""683"" width=""1390""><rect height=""68.3"" width=""68.3""y=""307.35""x=""660.85"" fill=""red""/></svg>","76","stim_present","test","red","middle","html-keyboard-response","135","125063","0.0-3.0-0.1-1.53","6bye","true"
"606.1399999889545","<svg height=""683"" width=""1390""><rect height=""68.3"" width=""68.3""y=""307.35""x=""1042.5"" fill=""red""/></svg>","76","stim_present","test","red","right","html-keyboard-response","137","126175","0.0-3.0-0.1-1.54","6bye","true"
"574.1149999957997","<svg height=""683"" width=""1390""><rect height=""68.3"" width=""68.3""y=""307.35""x=""660.85"" fill=""green""/></svg>","83","stim_present","test","green","middle","html-keyboard-response","139","127255","0.0-3.0-0.1-1.55","6bye","true"
"1781.7700000014156","<svg height=""683"" width=""1390""><rect height=""68.3"" width=""68.3""y=""307.35""x=""660.85"" fill=""red""/></svg>","76","stim_present","test","red","middle","html-keyboard-response","141","129542","0.0-3.0-0.1-1.56","6bye","true"
"549.9849999905564","<svg height=""683"" width=""1390""><rect height=""68.3"" width=""68.3""y=""307.35""x=""1042.5"" fill=""green""/></svg>","83","stim_present","test","green","right","html-keyboard-response","143","130598","0.0-3.0-0.1-1.57","6bye","true"
"966.8149999924935","<svg height=""683"" width=""1390""><rect height=""68.3"" width=""68.3""y=""307.35""x=""347.5"" fill=""red""/></svg>","76","stim_present","test","red","left","html-keyboard-response","145","132071","0.0-3.0-0.1-1.58","6bye","true"
"449.95000000926666","<svg height=""683"" width=""1390""><rect height=""68.3"" width=""68.3""y=""307.35""x=""347.5"" fill=""green""/></svg>","83","stim_present","test","green","left","html-keyboard-response","147","133022","0.0-3.0-0.1-1.59","6bye","true"
"351.0000000242144","<svg height=""683"" width=""1390""><rect height=""68.3"" width=""68.3""y=""307.35""x=""1042.5"" fill=""green""/></svg>","76","stim_present","test","green","right","html-keyboard-response","149","133878","0.0-3.0-0.1-1.60","6bye","false"
"334.62999999755993","<svg height=""683"" width=""1390""><rect height=""68.3"" width=""68.3""y=""307.35""x=""660.85"" fill=""green""/></svg>","83","stim_present","test","green","middle","html-keyboard-response","151","134718","0.0-3.0-0.1-1.61","6bye","true"
"474.6699999959674","<svg height=""683"" width=""1390""><rect height=""68.3"" width=""68.3""y=""307.35""x=""660.85"" fill=""red""/></svg>","76","stim_present","test","red","middle","html-keyboard-response","153","135694","0.0-3.0-0.1-1.62","6bye","true"
"890.4599999950733","<svg height=""683"" width=""1390""><rect height=""68.3"" width=""68.3""y=""307.35""x=""1042.5"" fill=""red""/></svg>","76","stim_present","test","red","right","html-keyboard-response","155","137086","0.0-3.0-0.1-1.63","6bye","true"
"578.3999999985099","<svg height=""683"" width=""1390""><rect height=""68.3"" width=""68.3""y=""307.35""x=""347.5"" fill=""red""/></svg>","83","stim_present","test","red","left","html-keyboard-response","157","138167","0.0-3.0-0.1-1.64","6bye","false"
"577.3999999801163","<svg height=""683"" width=""1390""><rect height=""68.3"" width=""68.3""y=""307.35""x=""347.5"" fill=""green""/></svg>","83","stim_present","test","green","left","html-keyboard-response","159","139246","0.0-3.0-0.1-1.65","6bye","true"
"454.5749999815598","<svg height=""683"" width=""1390""><rect height=""68.3"" width=""68.3""y=""307.35""x=""660.85"" fill=""green""/></svg>","83","stim_present","test","green","middle","html-keyboard-response","161","140206","0.0-3.0-0.1-1.66","6bye","true"
"594.2150000191759","<svg height=""683"" width=""1390""><rect height=""68.3"" width=""68.3""y=""307.35""x=""660.85"" fill=""red""/></svg>","76","stim_present","test","red","middle","html-keyboard-response","163","141302","0.0-3.0-0.1-1.67","6bye","true"
"515.5950000043958","<svg height=""683"" width=""1390""><rect height=""68.3"" width=""68.3""y=""307.35""x=""347.5"" fill=""red""/></svg>","76","stim_present","test","red","left","html-keyboard-response","165","142319","0.0-3.0-0.1-1.68","6bye","true"
"421.51499999454245","<svg height=""683"" width=""1390""><rect height=""68.3"" width=""68.3""y=""307.35""x=""1042.5"" fill=""red""/></svg>","76","stim_present","test","red","right","html-keyboard-response","167","143247","0.0-3.0-0.1-1.69","6bye","true"
"417.62500000186265","<svg height=""683"" width=""1390""><rect height=""68.3"" width=""68.3""y=""307.35""x=""1042.5"" fill=""green""/></svg>","83","stim_present","test","green","right","html-keyboard-response","169","144166","0.0-3.0-0.1-1.70","6bye","true"
"638.0650000064634","<svg height=""683"" width=""1390""><rect height=""68.3"" width=""68.3""y=""307.35""x=""347.5"" fill=""green""/></svg>","83","stim_present","test","green","left","html-keyboard-response","171","145310","0.0-3.0-0.1-1.71","6bye","true"
"844.8299999872688","<svg height=""683"" width=""1390""><rect height=""68.3"" width=""68.3""y=""307.35""x=""1042.5"" fill=""red""/></svg>","76","stim_present","test","red","right","html-keyboard-response","174","163777","0.0-3.0-0.2-1.72","6bye","true"
"531.0750000062399","<svg height=""683"" width=""1390""><rect height=""68.3"" width=""68.3""y=""307.35""x=""660.85"" fill=""red""/></svg>","76","stim_present","test","red","middle","html-keyboard-response","176","164810","0.0-3.0-0.2-1.73","6bye","true"
"333.32000000518747","<svg height=""683"" width=""1390""><rect height=""68.3"" width=""68.3""y=""307.35""x=""347.5"" fill=""green""/></svg>","83","stim_present","test","green","left","html-keyboard-response","178","165649","0.0-3.0-0.2-1.74","6bye","true"
"323.0150000017602","<svg height=""683"" width=""1390""><rect height=""68.3"" width=""68.3""y=""307.35""x=""1042.5"" fill=""green""/></svg>","83","stim_present","test","green","right","html-keyboard-response","180","166473","0.0-3.0-0.2-1.75","6bye","true"
"361.90499999793246","<svg height=""683"" width=""1390""><rect height=""68.3"" width=""68.3""y=""307.35""x=""660.85"" fill=""green""/></svg>","83","stim_present","test","green","middle","html-keyboard-response","182","167337","0.0-3.0-0.2-1.76","6bye","true"
"402.4149999895599","<svg height=""683"" width=""1390""><rect height=""68.3"" width=""68.3""y=""307.35""x=""347.5"" fill=""red""/></svg>","76","stim_present","test","red","left","html-keyboard-response","184","168241","0.0-3.0-0.2-1.77","6bye","true"
"373.4950000070967","<svg height=""683"" width=""1390""><rect height=""68.3"" width=""68.3""y=""307.35""x=""660.85"" fill=""green""/></svg>","76","stim_present","test","green","middle","html-keyboard-response","186","169121","0.0-3.0-0.2-1.78","6bye","false"
"414.35000000637956","<svg height=""683"" width=""1390""><rect height=""68.3"" width=""68.3""y=""307.35""x=""660.85"" fill=""red""/></svg>","76","stim_present","test","red","middle","html-keyboard-response","188","170041","0.0-3.0-0.2-1.79","6bye","true"
"350.38499999791384","<svg height=""683"" width=""1390""><rect height=""68.3"" width=""68.3""y=""307.35""x=""1042.5"" fill=""red""/></svg>","76","stim_present","test","red","right","html-keyboard-response","190","170897","0.0-3.0-0.2-1.80","6bye","true"
"421.88000000896864","<svg height=""683"" width=""1390""><rect height=""68.3"" width=""68.3""y=""307.35""x=""347.5"" fill=""red""/></svg>","76","stim_present","test","red","left","html-keyboard-response","192","171825","0.0-3.0-0.2-1.81","6bye","true"
"358.7650000117719","<svg height=""683"" width=""1390""><rect height=""68.3"" width=""68.3""y=""307.35""x=""347.5"" fill=""green""/></svg>","83","stim_present","test","green","left","html-keyboard-response","194","172690","0.0-3.0-0.2-1.82","6bye","true"
"365.43500001425855","<svg height=""683"" width=""1390""><rect height=""68.3"" width=""68.3""y=""307.35""x=""1042.5"" fill=""green""/></svg>","83","stim_present","test","green","right","html-keyboard-response","196","173561","0.0-3.0-0.2-1.83","6bye","true"
"326.4400000043679","<svg height=""683"" width=""1390""><rect height=""68.3"" width=""68.3""y=""307.35""x=""1042.5"" fill=""green""/></svg>","83","stim_present","test","green","right","html-keyboard-response","198","174393","0.0-3.0-0.2-1.84","6bye","true"
"279.9100000120234","<svg height=""683"" width=""1390""><rect height=""68.3"" width=""68.3""y=""307.35""x=""347.5"" fill=""green""/></svg>","83","stim_present","test","green","left","html-keyboard-response","200","175177","0.0-3.0-0.2-1.85","6bye","true"
"406.0450000106357","<svg height=""683"" width=""1390""><rect height=""68.3"" width=""68.3""y=""307.35""x=""660.85"" fill=""green""/></svg>","83","stim_present","test","green","middle","html-keyboard-response","202","176089","0.0-3.0-0.2-1.86","6bye","true"
"382.0500000147149","<svg height=""683"" width=""1390""><rect height=""68.3"" width=""68.3""y=""307.35""x=""1042.5"" fill=""red""/></svg>","76","stim_present","test","red","right","html-keyboard-response","204","176977","0.0-3.0-0.2-1.87","6bye","true"
"335.01500001875684","<svg height=""683"" width=""1390""><rect height=""68.3"" width=""68.3""y=""307.35""x=""347.5"" fill=""red""/></svg>","76","stim_present","test","red","left","html-keyboard-response","206","177817","0.0-3.0-0.2-1.88","6bye","true"
"294.0250000101514","<svg height=""683"" width=""1390""><rect height=""68.3"" width=""68.3""y=""307.35""x=""660.85"" fill=""red""/></svg>","76","stim_present","test","red","middle","html-keyboard-response","208","178617","0.0-3.0-0.2-1.89","6bye","true"
"366.2049999984447","<svg height=""683"" width=""1390""><rect height=""68.3"" width=""68.3""y=""307.35""x=""347.5"" fill=""green""/></svg>","83","stim_present","test","green","left","html-keyboard-response","210","179489","0.0-3.0-0.2-1.90","6bye","true"
"373.85999999241903","<svg height=""683"" width=""1390""><rect height=""68.3"" width=""68.3""y=""307.35""x=""1042.5"" fill=""green""/></svg>","83","stim_present","test","green","right","html-keyboard-response","212","180369","0.0-3.0-0.2-1.91","6bye","true"
"342.0650000043679","<svg height=""683"" width=""1390""><rect height=""68.3"" width=""68.3""y=""307.35""x=""660.85"" fill=""green""/></svg>","83","stim_present","test","green","middle","html-keyboard-response","214","181217","0.0-3.0-0.2-1.92","6bye","true"
"410.5450000206474","<svg height=""683"" width=""1390""><rect height=""68.3"" width=""68.3""y=""307.35""x=""347.5"" fill=""red""/></svg>","76","stim_present","test","red","left","html-keyboard-response","216","182129","0.0-3.0-0.2-1.93","6bye","true"
"401.55999999842606","<svg height=""683"" width=""1390""><rect height=""68.3"" width=""68.3""y=""307.35""x=""1042.5"" fill=""red""/></svg>","76","stim_present","test","red","right","html-keyboard-response","218","183034","0.0-3.0-0.2-1.94","6bye","true"
"341.38500000699423","<svg height=""683"" width=""1390""><rect height=""68.3"" width=""68.3""y=""307.35""x=""660.85"" fill=""red""/></svg>","76","stim_present","test","red","middle","html-keyboard-response","220","183881","0.0-3.0-0.2-1.95","6bye","true"
"326.0749999899417","<svg height=""683"" width=""1390""><rect height=""68.3"" width=""68.3""y=""307.35""x=""347.5"" fill=""red""/></svg>","76","stim_present","test","red","left","html-keyboard-response","222","184713","0.0-3.0-0.2-1.96","6bye","true"
"366.04999998235144","<svg height=""683"" width=""1390""><rect height=""68.3"" width=""68.3""y=""307.35""x=""1042.5"" fill=""red""/></svg>","76","stim_present","test","red","right","html-keyboard-response","224","185585","0.0-3.0-0.2-1.97","6bye","true"
"302.7299999957904","<svg height=""683"" width=""1390""><rect height=""68.3"" width=""68.3""y=""307.35""x=""347.5"" fill=""green""/></svg>","83","stim_present","test","green","left","html-keyboard-response","226","186393","0.0-3.0-0.2-1.98","6bye","true"
"399.9349999940023","<svg height=""683"" width=""1390""><rect height=""68.3"" width=""68.3""y=""307.35""x=""660.85"" fill=""red""/></svg>","76","stim_present","test","red","middle","html-keyboard-response","228","187297","0.0-3.0-0.2-1.99","6bye","true"
"461.8250000057742","<svg height=""683"" width=""1390""><rect height=""68.3"" width=""68.3""y=""307.35""x=""1042.5"" fill=""green""/></svg>","83","stim_present","test","green","right","html-keyboard-response","230","188265","0.0-3.0-0.2-1.100","6bye","true"
"378.17500001983717","<svg height=""683"" width=""1390""><rect height=""68.3"" width=""68.3""y=""307.35""x=""660.85"" fill=""green""/></svg>","83","stim_present","test","green","middle","html-keyboard-response","232","189145","0.0-3.0-0.2-1.101","6bye","true"
"482.16000001411885","<svg height=""683"" width=""1390""><rect height=""68.3"" width=""68.3""y=""307.35""x=""660.85"" fill=""red""/></svg>","76","stim_present","test","red","middle","html-keyboard-response","234","190129","0.0-3.0-0.2-1.102","6bye","true"
"294.5400000025984","<svg height=""683"" width=""1390""><rect height=""68.3"" width=""68.3""y=""307.35""x=""347.5"" fill=""green""/></svg>","83","stim_present","test","green","left","html-keyboard-response","236","190928","0.0-3.0-0.2-1.103","6bye","true"
"374.30500000482425","<svg height=""683"" width=""1390""><rect height=""68.3"" width=""68.3""y=""307.35""x=""1042.5"" fill=""green""/></svg>","83","stim_present","test","green","right","html-keyboard-response","238","191809","0.0-3.0-0.2-1.104","6bye","true"
"314.32000000495464","<svg height=""683"" width=""1390""><rect height=""68.3"" width=""68.3""y=""307.35""x=""660.85"" fill=""green""/></svg>","83","stim_present","test","green","middle","html-keyboard-response","240","192625","0.0-3.0-0.2-1.105","6bye","true"
"477.935000002617","<svg height=""683"" width=""1390""><rect height=""68.3"" width=""68.3""y=""307.35""x=""347.5"" fill=""red""/></svg>","76","stim_present","test","red","left","html-keyboard-response","242","193609","0.0-3.0-0.2-1.106","6bye","true"
"321.380000008503","<svg height=""683"" width=""1390""><rect height=""68.3"" width=""68.3""y=""307.35""x=""1042.5"" fill=""red""/></svg>","76","stim_present","test","red","right","html-keyboard-response","244","194433","0.0-3.0-0.2-1.107","6bye","true"
"648.5749999992549","<svg height=""683"" width=""1390""><rect height=""68.3"" width=""68.3""y=""307.35""x=""1042.5"" fill=""red""/></svg>","76","stim_present","test","red","right","html-keyboard-response","247","196688","0.0-3.0-0.3-1.108","6bye","true"
"350.24499997962266","<svg height=""683"" width=""1390""><rect height=""68.3"" width=""68.3""y=""307.35""x=""347.5"" fill=""red""/></svg>","83","stim_present","test","red","left","html-keyboard-response","249","197544","0.0-3.0-0.3-1.109","6bye","false"
"469.6700000204146","<svg height=""683"" width=""1390""><rect height=""68.3"" width=""68.3""y=""307.35""x=""347.5"" fill=""green""/></svg>","83","stim_present","test","green","left","html-keyboard-response","251","198521","0.0-3.0-0.3-1.110","6bye","true"
"384.59999999031425","<svg height=""683"" width=""1390""><rect height=""68.3"" width=""68.3""y=""307.35""x=""1042.5"" fill=""green""/></svg>","83","stim_present","test","green","right","html-keyboard-response","253","199409","0.0-3.0-0.3-1.111","6bye","true"
"313.43000000924803","<svg height=""683"" width=""1390""><rect height=""68.3"" width=""68.3""y=""307.35""x=""660.85"" fill=""green""/></svg>","83","stim_present","test","green","middle","html-keyboard-response","255","200225","0.0-3.0-0.3-1.112","6bye","true"
"558.0049999989569","<svg height=""683"" width=""1390""><rect height=""68.3"" width=""68.3""y=""307.35""x=""660.85"" fill=""red""/></svg>","76","stim_present","test","red","middle","html-keyboard-response","257","201289","0.0-3.0-0.3-1.113","6bye","true"
"370.43999999877997","<svg height=""683"" width=""1390""><rect height=""68.3"" width=""68.3""y=""307.35""x=""1042.5"" fill=""red""/></svg>","76","stim_present","test","red","right","html-keyboard-response","259","202161","0.0-3.0-0.3-1.114","6bye","true"
"446.380000008503","<svg height=""683"" width=""1390""><rect height=""68.3"" width=""68.3""y=""307.35""x=""660.85"" fill=""green""/></svg>","83","stim_present","test","green","middle","html-keyboard-response","261","203113","0.0-3.0-0.3-1.115","6bye","true"
"337.8200000151992","<svg height=""683"" width=""1390""><rect height=""68.3"" width=""68.3""y=""307.35""x=""347.5"" fill=""green""/></svg>","83","stim_present","test","green","left","html-keyboard-response","263","203953","0.0-3.0-0.3-1.116","6bye","true"
"365.5350000190083","<svg height=""683"" width=""1390""><rect height=""68.3"" width=""68.3""y=""307.35""x=""1042.5"" fill=""green""/></svg>","83","stim_present","test","green","right","html-keyboard-response","265","204825","0.0-3.0-0.3-1.117","6bye","true"
"437.8349999897182","<svg height=""683"" width=""1390""><rect height=""68.3"" width=""68.3""y=""307.35""x=""347.5"" fill=""red""/></svg>","76","stim_present","test","red","left","html-keyboard-response","267","205768","0.0-3.0-0.3-1.118","6bye","true"
"391.9150000147056","<svg height=""683"" width=""1390""><rect height=""68.3"" width=""68.3""y=""307.35""x=""660.85"" fill=""red""/></svg>","76","stim_present","test","red","middle","html-keyboard-response","269","206665","0.0-3.0-0.3-1.119","6bye","true"
"478.16999998758547","<svg height=""683"" width=""1390""><rect height=""68.3"" width=""68.3""y=""307.35""x=""1042.5"" fill=""green""/></svg>","83","stim_present","test","green","right","html-keyboard-response","271","207649","0.0-3.0-0.3-1.120","6bye","true"
"469.59500000230037","<svg height=""683"" width=""1390""><rect height=""68.3"" width=""68.3""y=""307.35""x=""660.85"" fill=""red""/></svg>","76","stim_present","test","red","middle","html-keyboard-response","273","208624","0.0-3.0-0.3-1.121","6bye","true"
"374.34000000939704","<svg height=""683"" width=""1390""><rect height=""68.3"" width=""68.3""y=""307.35""x=""1042.5"" fill=""red""/></svg>","76","stim_present","test","red","right","html-keyboard-response","275","209504","0.0-3.0-0.3-1.122","6bye","true"
"542.1500000229571","<svg height=""683"" width=""1390""><rect height=""68.3"" width=""68.3""y=""307.35""x=""660.85"" fill=""green""/></svg>","83","stim_present","test","green","middle","html-keyboard-response","277","210553","0.0-3.0-0.3-1.123","6bye","true"
"570.2500000188593","<svg height=""683"" width=""1390""><rect height=""68.3"" width=""68.3""y=""307.35""x=""347.5"" fill=""red""/></svg>","76","stim_present","test","red","left","html-keyboard-response","279","211624","0.0-3.0-0.3-1.124","6bye","true"
"792.1649999916553","<svg height=""683"" width=""1390""><rect height=""68.3"" width=""68.3""y=""307.35""x=""347.5"" fill=""green""/></svg>","83","stim_present","test","green","left","html-keyboard-response","281","212920","0.0-3.0-0.3-1.125","6bye","true"
"382.2349999973085","<svg height=""683"" width=""1390""><rect height=""68.3"" width=""68.3""y=""307.35""x=""660.85"" fill=""green""/></svg>","76","stim_present","test","green","middle","html-keyboard-response","283","213808","0.0-3.0-0.3-1.126","6bye","false"
"327.4549999914598","<svg height=""683"" width=""1390""><rect height=""68.3"" width=""68.3""y=""307.35""x=""1042.5"" fill=""red""/></svg>","76","stim_present","test","red","right","html-keyboard-response","285","214641","0.0-3.0-0.3-1.127","6bye","true"
"401.00000001257285","<svg height=""683"" width=""1390""><rect height=""68.3"" width=""68.3""y=""307.35""x=""347.5"" fill=""red""/></svg>","76","stim_present","test","red","left","html-keyboard-response","287","215544","0.0-3.0-0.3-1.128","6bye","true"
"383.6850000079721","<svg height=""683"" width=""1390""><rect height=""68.3"" width=""68.3""y=""307.35""x=""660.85"" fill=""red""/></svg>","76","stim_present","test","red","middle","html-keyboard-response","289","216432","0.0-3.0-0.3-1.129","6bye","true"
"418.1700000190176","<svg height=""683"" width=""1390""><rect height=""68.3"" width=""68.3""y=""307.35""x=""1042.5"" fill=""green""/></svg>","83","stim_present","test","green","right","html-keyboard-response","291","217352","0.0-3.0-0.3-1.130","6bye","true"
"630.0449999980628","<svg height=""683"" width=""1390""><rect height=""68.3"" width=""68.3""y=""307.35""x=""347.5"" fill=""green""/></svg>","76","stim_present","test","green","left","html-keyboard-response","293","218488","0.0-3.0-0.3-1.131","6bye","false"
"478.0099999916274","<svg height=""683"" width=""1390""><rect height=""68.3"" width=""68.3""y=""307.35""x=""1042.5"" fill=""red""/></svg>","76","stim_present","test","red","right","html-keyboard-response","295","219472","0.0-3.0-0.3-1.132","6bye","true"
"394.85000001150183","<svg height=""683"" width=""1390""><rect height=""68.3"" width=""68.3""y=""307.35""x=""660.85"" fill=""red""/></svg>","76","stim_present","test","red","middle","html-keyboard-response","297","220368","0.0-3.0-0.3-1.133","6bye","true"
"442.3100000130944","<svg height=""683"" width=""1390""><rect height=""68.3"" width=""68.3""y=""307.35""x=""347.5"" fill=""red""/></svg>","76","stim_present","test","red","left","html-keyboard-response","299","221312","0.0-3.0-0.3-1.134","6bye","true"
"303.8200000009965","<svg height=""683"" width=""1390""><rect height=""68.3"" width=""68.3""y=""307.35""x=""660.85"" fill=""green""/></svg>","83","stim_present","test","green","middle","html-keyboard-response","301","222120","0.0-3.0-0.3-1.135","6bye","true"
"338.46500000800006","<svg height=""683"" width=""1390""><rect height=""68.3"" width=""68.3""y=""307.35""x=""347.5"" fill=""green""/></svg>","83","stim_present","test","green","left","html-keyboard-response","303","222960","0.0-3.0-0.3-1.136","6bye","true"
"346.27500001806766","<svg height=""683"" width=""1390""><rect height=""68.3"" width=""68.3""y=""307.35""x=""1042.5"" fill=""green""/></svg>","83","stim_present","test","green","right","html-keyboard-response","305","223808","0.0-3.0-0.3-1.137","6bye","true"
"368.53000000701286","<svg height=""683"" width=""1390""><rect height=""68.3"" width=""68.3""y=""307.35""x=""1042.5"" fill=""green""/></svg>","83","stim_present","test","green","right","html-keyboard-response","307","224680","0.0-3.0-0.3-1.138","6bye","true"
"350.044999999227","<svg height=""683"" width=""1390""><rect height=""68.3"" width=""68.3""y=""307.35""x=""660.85"" fill=""green""/></svg>","83","stim_present","test","green","middle","html-keyboard-response","309","225536","0.0-3.0-0.3-1.139","6bye","true"
"521.1699999927077","<svg height=""683"" width=""1390""><rect height=""68.3"" width=""68.3""y=""307.35""x=""1042.5"" fill=""red""/></svg>","76","stim_present","test","red","right","html-keyboard-response","311","226560","0.0-3.0-0.3-1.140","6bye","true"
"470.1350000104867","<svg height=""683"" width=""1390""><rect height=""68.3"" width=""68.3""y=""307.35""x=""347.5"" fill=""red""/></svg>","76","stim_present","test","red","left","html-keyboard-response","313","227536","0.0-3.0-0.3-1.141","6bye","true"
"472.5699999835342","<svg height=""683"" width=""1390""><rect height=""68.3"" width=""68.3""y=""307.35""x=""347.5"" fill=""green""/></svg>","83","stim_present","test","green","left","html-keyboard-response","315","228512","0.0-3.0-0.3-1.142","6bye","true"
"351.4849999919534","<svg height=""683"" width=""1390""><rect height=""68.3"" width=""68.3""y=""307.35""x=""660.85"" fill=""red""/></svg>","76","stim_present","test","red","middle","html-keyboard-response","317","229368","0.0-3.0-0.3-1.143","6bye","true"
