"rt","stimulus","key_press","type","part","color","position","trial_type","trial_index","time_elapsed","internal_node_id","subject","accuracy"
"721.9199999817647","<svg height=""528"" width=""1230""><rect height=""52.8"" width=""52.8""y=""237.6""x=""922.5"" fill=""red""/></svg>","76","stim_present","training","red","right","html-keyboard-response","3","1308632","0.0-2.0-0.0-1.0","42hv","true"
"1171.4349999965634","<svg height=""528"" width=""1230""><rect height=""52.8"" width=""52.8""y=""237.6""x=""307.5"" fill=""green""/></svg>","83","stim_present","training","green","left","html-keyboard-response","5","1310322","0.0-2.0-0.0-1.1","42hv","true"
"2315.1400000206195","<svg height=""528"" width=""1230""><rect height=""52.8"" width=""52.8""y=""237.6""x=""922.5"" fill=""green""/></svg>","83","stim_present","training","green","right","html-keyboard-response","7","1313142","0.0-2.0-0.0-1.2","42hv","true"
"842.9999999934807","<svg height=""528"" width=""1230""><rect height=""52.8"" width=""52.8""y=""237.6""x=""307.5"" fill=""red""/></svg>","76","stim_present","training","red","left","html-keyboard-response","9","1314498","0.0-2.0-0.0-1.3","42hv","true"
"794.9200000148267","<svg height=""528"" width=""1230""><rect height=""52.8"" width=""52.8""y=""237.6""x=""588.6"" fill=""green""/></svg>","83","stim_present","training","green","middle","html-keyboard-response","11","1315803","0.0-2.0-0.0-1.4","42hv","true"
"705.4199999838602","<svg height=""528"" width=""1230""><rect height=""52.8"" width=""52.8""y=""237.6""x=""588.6"" fill=""red""/></svg>","76","stim_present","training","red","middle","html-keyboard-response","13","1317013","0.0-2.0-0.0-1.5","42hv","true"
"713.385000010021","<svg height=""528"" width=""1230""><rect height=""52.8"" width=""52.8""y=""237.6""x=""588.6"" fill=""red""/></svg>","76","stim_present","training","red","middle","html-keyboard-response","15","1318233","0.0-2.0-0.0-1.6","42hv","true"
"627.1600000036415","<svg height=""528"" width=""1230""><rect height=""52.8"" width=""52.8""y=""237.6""x=""307.5"" fill=""red""/></svg>","76","stim_present","training","red","left","html-keyboard-response","17","1319379","0.0-2.0-0.0-1.7","42hv","true"
"661.6999999969266","<svg height=""528"" width=""1230""><rect height=""52.8"" width=""52.8""y=""237.6""x=""922.5"" fill=""green""/></svg>","83","stim_present","training","green","right","html-keyboard-response","19","1320549","0.0-2.0-0.0-1.8","42hv","true"
"415.1550000242423","<svg height=""528"" width=""1230""><rect height=""52.8"" width=""52.8""y=""237.6""x=""307.5"" fill=""green""/></svg>","83","stim_present","training","green","left","html-keyboard-response","21","1321478","0.0-2.0-0.0-1.9","42hv","true"
"654.0350000141189","<svg height=""528"" width=""1230""><rect height=""52.8"" width=""52.8""y=""237.6""x=""922.5"" fill=""red""/></svg>","76","stim_present","training","red","right","html-keyboard-response","23","1322649","0.0-2.0-0.0-1.10","42hv","true"
"571.0050000052433","<svg height=""528"" width=""1230""><rect height=""52.8"" width=""52.8""y=""237.6""x=""588.6"" fill=""green""/></svg>","83","stim_present","training","green","middle","html-keyboard-response","25","1323734","0.0-2.0-0.0-1.11","42hv","true"
"646.5650000027381","<svg height=""528"" width=""1230""><rect height=""52.8"" width=""52.8""y=""237.6""x=""307.5"" fill=""red""/></svg>","76","stim_present","test","red","left","html-keyboard-response","28","1333740","0.0-3.0-0.0-1.0","42hv","true"
"527.6700000104029","<svg height=""528"" width=""1230""><rect height=""52.8"" width=""52.8""y=""237.6""x=""588.6"" fill=""green""/></svg>","83","stim_present","test","green","middle","html-keyboard-response","30","1334781","0.0-3.0-0.0-1.1","42hv","true"
"396.7199999897275","<svg height=""528"" width=""1230""><rect height=""52.8"" width=""52.8""y=""237.6""x=""588.6"" fill=""red""/></svg>","83","stim_present","test","red","middle","html-keyboard-response","32","1335695","0.0-3.0-0.0-1.2","42hv","false"
"724.4800000044052","<svg height=""528"" width=""1230""><rect height=""52.8"" width=""52.8""y=""237.6""x=""307.5"" fill=""green""/></svg>","83","stim_present","test","green","left","html-keyboard-response","34","1336942","0.0-3.0-0.0-1.3","42hv","true"
"722.3499999963678","<svg height=""528"" width=""1230""><rect height=""52.8"" width=""52.8""y=""237.6""x=""922.5"" fill=""red""/></svg>","76","stim_present","test","red","right","html-keyboard-response","36","1338168","0.0-3.0-0.0-1.4","42hv","true"
"574.6449999860488","<svg height=""528"" width=""1230""><rect height=""52.8"" width=""52.8""y=""237.6""x=""922.5"" fill=""green""/></svg>","83","stim_present","test","green","right","html-keyboard-response","38","1339257","0.0-3.0-0.0-1.5","42hv","true"
"730.4600000206847","<svg height=""528"" width=""1230""><rect height=""52.8"" width=""52.8""y=""237.6""x=""922.5"" fill=""green""/></svg>","83","stim_present","test","green","right","html-keyboard-response","40","1340502","0.0-3.0-0.0-1.6","42hv","true"
"784.0349999896716","<svg height=""528"" width=""1230""><rect height=""52.8"" width=""52.8""y=""237.6""x=""307.5"" fill=""red""/></svg>","76","stim_present","test","red","left","html-keyboard-response","42","1341798","0.0-3.0-0.0-1.7","42hv","true"
"478.40500000165775","<svg height=""528"" width=""1230""><rect height=""52.8"" width=""52.8""y=""237.6""x=""588.6"" fill=""red""/></svg>","76","stim_present","test","red","middle","html-keyboard-response","44","1342794","0.0-3.0-0.0-1.8","42hv","true"
"588.3650000032503","<svg height=""528"" width=""1230""><rect height=""52.8"" width=""52.8""y=""237.6""x=""922.5"" fill=""red""/></svg>","76","stim_present","test","red","right","html-keyboard-response","46","1343887","0.0-3.0-0.0-1.9","42hv","true"
"584.6299999975599","<svg height=""528"" width=""1230""><rect height=""52.8"" width=""52.8""y=""237.6""x=""588.6"" fill=""green""/></svg>","83","stim_present","test","green","middle","html-keyboard-response","48","1344983","0.0-3.0-0.0-1.10","42hv","true"
"487.299999978859","<svg height=""528"" width=""1230""><rect height=""52.8"" width=""52.8""y=""237.6""x=""307.5"" fill=""green""/></svg>","83","stim_present","test","green","left","html-keyboard-response","50","1345977","0.0-3.0-0.0-1.11","42hv","true"
"397.5849999987986","<svg height=""528"" width=""1230""><rect height=""52.8"" width=""52.8""y=""237.6""x=""307.5"" fill=""green""/></svg>","83","stim_present","test","green","left","html-keyboard-response","52","1346887","0.0-3.0-0.0-1.12","42hv","true"
"664.6699999982957","<svg height=""528"" width=""1230""><rect height=""52.8"" width=""52.8""y=""237.6""x=""307.5"" fill=""red""/></svg>","76","stim_present","test","red","left","html-keyboard-response","54","1348058","0.0-3.0-0.0-1.13","42hv","true"
"510.80000001820736","<svg height=""528"" width=""1230""><rect height=""52.8"" width=""52.8""y=""237.6""x=""588.6"" fill=""red""/></svg>","76","stim_present","test","red","middle","html-keyboard-response","56","1349073","0.0-3.0-0.0-1.14","42hv","true"
"552.5699999998324","<svg height=""528"" width=""1230""><rect height=""52.8"" width=""52.8""y=""237.6""x=""588.6"" fill=""green""/></svg>","83","stim_present","test","green","middle","html-keyboard-response","58","1350143","0.0-3.0-0.0-1.15","42hv","true"
"584.450000023935","<svg height=""528"" width=""1230""><rect height=""52.8"" width=""52.8""y=""237.6""x=""922.5"" fill=""green""/></svg>","83","stim_present","test","green","right","html-keyboard-response","60","1351243","0.0-3.0-0.0-1.16","42hv","true"
"598.0900000140537","<svg height=""528"" width=""1230""><rect height=""52.8"" width=""52.8""y=""237.6""x=""922.5"" fill=""red""/></svg>","76","stim_present","test","red","right","html-keyboard-response","62","1352359","0.0-3.0-0.0-1.17","42hv","true"
"979.1100000147708","<svg height=""528"" width=""1230""><rect height=""52.8"" width=""52.8""y=""237.6""x=""922.5"" fill=""green""/></svg>","83","stim_present","test","green","right","html-keyboard-response","64","1353844","0.0-3.0-0.0-1.18","42hv","true"
"461.6000000096392","<svg height=""528"" width=""1230""><rect height=""52.8"" width=""52.8""y=""237.6""x=""307.5"" fill=""red""/></svg>","76","stim_present","test","red","left","html-keyboard-response","66","1354818","0.0-3.0-0.0-1.19","42hv","true"
"690.5599999881815","<svg height=""528"" width=""1230""><rect height=""52.8"" width=""52.8""y=""237.6""x=""588.6"" fill=""green""/></svg>","83","stim_present","test","green","middle","html-keyboard-response","68","1356029","0.0-3.0-0.0-1.20","42hv","true"
"765.9199999761768","<svg height=""528"" width=""1230""><rect height=""52.8"" width=""52.8""y=""237.6""x=""307.5"" fill=""green""/></svg>","83","stim_present","test","green","left","html-keyboard-response","70","1357309","0.0-3.0-0.0-1.21","42hv","true"
"467.8249999997206","<svg height=""528"" width=""1230""><rect height=""52.8"" width=""52.8""y=""237.6""x=""922.5"" fill=""red""/></svg>","76","stim_present","test","red","right","html-keyboard-response","72","1358284","0.0-3.0-0.0-1.22","42hv","true"
"601.9099999975879","<svg height=""528"" width=""1230""><rect height=""52.8"" width=""52.8""y=""237.6""x=""588.6"" fill=""red""/></svg>","76","stim_present","test","red","middle","html-keyboard-response","74","1359388","0.0-3.0-0.0-1.23","42hv","true"
"426.38499999884516","<svg height=""528"" width=""1230""><rect height=""52.8"" width=""52.8""y=""237.6""x=""588.6"" fill=""green""/></svg>","83","stim_present","test","green","middle","html-keyboard-response","76","1360329","0.0-3.0-0.0-1.24","42hv","true"
"475.525000016205","<svg height=""528"" width=""1230""><rect height=""52.8"" width=""52.8""y=""237.6""x=""922.5"" fill=""green""/></svg>","83","stim_present","test","green","right","html-keyboard-response","78","1361314","0.0-3.0-0.0-1.25","42hv","true"
"451.37500000419095","<svg height=""528"" width=""1230""><rect height=""52.8"" width=""52.8""y=""237.6""x=""922.5"" fill=""red""/></svg>","76","stim_present","test","red","right","html-keyboard-response","80","1362274","0.0-3.0-0.0-1.26","42hv","true"
"1033.884999982547","<svg height=""528"" width=""1230""><rect height=""52.8"" width=""52.8""y=""237.6""x=""307.5"" fill=""green""/></svg>","83","stim_present","test","green","left","html-keyboard-response","82","1363816","0.0-3.0-0.0-1.27","42hv","true"
"470.6799999985378","<svg height=""528"" width=""1230""><rect height=""52.8"" width=""52.8""y=""237.6""x=""588.6"" fill=""red""/></svg>","76","stim_present","test","red","middle","html-keyboard-response","84","1364801","0.0-3.0-0.0-1.28","42hv","true"
"831.1200000171084","<svg height=""528"" width=""1230""><rect height=""52.8"" width=""52.8""y=""237.6""x=""307.5"" fill=""red""/></svg>","76","stim_present","test","red","left","html-keyboard-response","86","1366135","0.0-3.0-0.0-1.29","42hv","true"
"480.01500000827946","<svg height=""528"" width=""1230""><rect height=""52.8"" width=""52.8""y=""237.6""x=""588.6"" fill=""red""/></svg>","76","stim_present","test","red","middle","html-keyboard-response","88","1367130","0.0-3.0-0.0-1.30","42hv","true"
"556.3400000100955","<svg height=""528"" width=""1230""><rect height=""52.8"" width=""52.8""y=""237.6""x=""588.6"" fill=""green""/></svg>","83","stim_present","test","green","middle","html-keyboard-response","90","1368198","0.0-3.0-0.0-1.31","42hv","true"
"480.57499999413267","<svg height=""528"" width=""1230""><rect height=""52.8"" width=""52.8""y=""237.6""x=""922.5"" fill=""red""/></svg>","76","stim_present","test","red","right","html-keyboard-response","92","1369190","0.0-3.0-0.0-1.32","42hv","true"
"427.5049999996554","<svg height=""528"" width=""1230""><rect height=""52.8"" width=""52.8""y=""237.6""x=""922.5"" fill=""green""/></svg>","83","stim_present","test","green","right","html-keyboard-response","94","1370125","0.0-3.0-0.0-1.33","42hv","true"
"426.6600000264589","<svg height=""528"" width=""1230""><rect height=""52.8"" width=""52.8""y=""237.6""x=""307.5"" fill=""green""/></svg>","83","stim_present","test","green","left","html-keyboard-response","96","1371069","0.0-3.0-0.0-1.34","42hv","true"
"526.7400000011548","<svg height=""528"" width=""1230""><rect height=""52.8"" width=""52.8""y=""237.6""x=""307.5"" fill=""red""/></svg>","76","stim_present","test","red","left","html-keyboard-response","98","1372110","0.0-3.0-0.0-1.35","42hv","true"
"435.69499999284744","<svg height=""528"" width=""1230""><rect height=""52.8"" width=""52.8""y=""237.6""x=""307.5"" fill=""red""/></svg>","76","stim_present","test","red","left","html-keyboard-response","101","1376800","0.0-3.0-0.1-1.36","42hv","true"
"425.420000043232","<svg height=""528"" width=""1230""><rect height=""52.8"" width=""52.8""y=""237.6""x=""922.5"" fill=""red""/></svg>","76","stim_present","test","red","right","html-keyboard-response","103","1377731","0.0-3.0-0.1-1.37","42hv","true"
"434.10000001313165","<svg height=""528"" width=""1230""><rect height=""52.8"" width=""52.8""y=""237.6""x=""588.6"" fill=""red""/></svg>","76","stim_present","test","red","middle","html-keyboard-response","105","1378676","0.0-3.0-0.1-1.38","42hv","true"
"414.95500004384667","<svg height=""528"" width=""1230""><rect height=""52.8"" width=""52.8""y=""237.6""x=""307.5"" fill=""green""/></svg>","83","stim_present","test","green","left","html-keyboard-response","107","1379605","0.0-3.0-0.1-1.39","42hv","true"
"543.4499999973923","<svg height=""528"" width=""1230""><rect height=""52.8"" width=""52.8""y=""237.6""x=""588.6"" fill=""green""/></svg>","83","stim_present","test","green","middle","html-keyboard-response","109","1380656","0.0-3.0-0.1-1.40","42hv","true"
"416.7400000151247","<svg height=""528"" width=""1230""><rect height=""52.8"" width=""52.8""y=""237.6""x=""922.5"" fill=""green""/></svg>","83","stim_present","test","green","right","html-keyboard-response","111","1381576","0.0-3.0-0.1-1.41","42hv","true"
"326.8450000323355","<svg height=""528"" width=""1230""><rect height=""52.8"" width=""52.8""y=""237.6""x=""922.5"" fill=""green""/></svg>","83","stim_present","test","green","right","html-keyboard-response","113","1382406","0.0-3.0-0.1-1.42","42hv","true"
"464.35999998357147","<svg height=""528"" width=""1230""><rect height=""52.8"" width=""52.8""y=""237.6""x=""588.6"" fill=""red""/></svg>","76","stim_present","test","red","middle","html-keyboard-response","115","1383379","0.0-3.0-0.1-1.43","42hv","true"
"390.4550000443123","<svg height=""528"" width=""1230""><rect height=""52.8"" width=""52.8""y=""237.6""x=""922.5"" fill=""red""/></svg>","76","stim_present","test","red","right","html-keyboard-response","117","1384276","0.0-3.0-0.1-1.44","42hv","true"
"350.2100000041537","<svg height=""528"" width=""1230""><rect height=""52.8"" width=""52.8""y=""237.6""x=""307.5"" fill=""green""/></svg>","83","stim_present","test","green","left","html-keyboard-response","119","1385135","0.0-3.0-0.1-1.45","42hv","true"
"339.44499999051914","<svg height=""528"" width=""1230""><rect height=""52.8"" width=""52.8""y=""237.6""x=""588.6"" fill=""green""/></svg>","83","stim_present","test","green","middle","html-keyboard-response","121","1385991","0.0-3.0-0.1-1.46","42hv","true"
"448.050000006333","<svg height=""528"" width=""1230""><rect height=""52.8"" width=""52.8""y=""237.6""x=""307.5"" fill=""red""/></svg>","76","stim_present","test","red","left","html-keyboard-response","123","1386945","0.0-3.0-0.1-1.47","42hv","true"
"505.4899999522604","<svg height=""528"" width=""1230""><rect height=""52.8"" width=""52.8""y=""237.6""x=""922.5"" fill=""red""/></svg>","76","stim_present","test","red","right","html-keyboard-response","125","1387960","0.0-3.0-0.1-1.48","42hv","true"
"553.9149999967776","<svg height=""528"" width=""1230""><rect height=""52.8"" width=""52.8""y=""237.6""x=""307.5"" fill=""red""/></svg>","76","stim_present","test","red","left","html-keyboard-response","127","1389031","0.0-3.0-0.1-1.49","42hv","true"
"463.530000008177","<svg height=""528"" width=""1230""><rect height=""52.8"" width=""52.8""y=""237.6""x=""922.5"" fill=""green""/></svg>","83","stim_present","test","green","right","html-keyboard-response","129","1390012","0.0-3.0-0.1-1.50","42hv","true"
"487.8199999802746","<svg height=""528"" width=""1230""><rect height=""52.8"" width=""52.8""y=""237.6""x=""588.6"" fill=""red""/></svg>","76","stim_present","test","red","middle","html-keyboard-response","131","1391012","0.0-3.0-0.1-1.51","42hv","true"
"324.3800000054762","<svg height=""528"" width=""1230""><rect height=""52.8"" width=""52.8""y=""237.6""x=""307.5"" fill=""green""/></svg>","83","stim_present","test","green","left","html-keyboard-response","133","1391842","0.0-3.0-0.1-1.52","42hv","true"
"376.15500000538304","<svg height=""528"" width=""1230""><rect height=""52.8"" width=""52.8""y=""237.6""x=""588.6"" fill=""green""/></svg>","83","stim_present","test","green","middle","html-keyboard-response","135","1392732","0.0-3.0-0.1-1.53","42hv","true"
"365.3599999961443","<svg height=""528"" width=""1230""><rect height=""52.8"" width=""52.8""y=""237.6""x=""307.5"" fill=""red""/></svg>","83","stim_present","test","red","left","html-keyboard-response","137","1393608","0.0-3.0-0.1-1.54","42hv","false"
"768.7300000106916","<svg height=""528"" width=""1230""><rect height=""52.8"" width=""52.8""y=""237.6""x=""922.5"" fill=""red""/></svg>","76","stim_present","test","red","right","html-keyboard-response","139","1394883","0.0-3.0-0.1-1.55","42hv","true"
"517.9100000532344","<svg height=""528"" width=""1230""><rect height=""52.8"" width=""52.8""y=""237.6""x=""588.6"" fill=""red""/></svg>","76","stim_present","test","red","middle","html-keyboard-response","141","1395917","0.0-3.0-0.1-1.56","42hv","true"
"302.6700000045821","<svg height=""528"" width=""1230""><rect height=""52.8"" width=""52.8""y=""237.6""x=""307.5"" fill=""green""/></svg>","83","stim_present","test","green","left","html-keyboard-response","143","1396738","0.0-3.0-0.1-1.57","42hv","true"
"712.984999991022","<svg height=""528"" width=""1230""><rect height=""52.8"" width=""52.8""y=""237.6""x=""922.5"" fill=""green""/></svg>","83","stim_present","test","green","right","html-keyboard-response","145","1397968","0.0-3.0-0.1-1.58","42hv","true"
"535.6999999494292","<svg height=""528"" width=""1230""><rect height=""52.8"" width=""52.8""y=""237.6""x=""588.6"" fill=""green""/></svg>","83","stim_present","test","green","middle","html-keyboard-response","147","1399012","0.0-3.0-0.1-1.59","42hv","true"
"336.3649999955669","<svg height=""528"" width=""1230""><rect height=""52.8"" width=""52.8""y=""237.6""x=""588.6"" fill=""green""/></svg>","83","stim_present","test","green","middle","html-keyboard-response","149","1399859","0.0-3.0-0.1-1.60","42hv","true"
"468.4250000282191","<svg height=""528"" width=""1230""><rect height=""52.8"" width=""52.8""y=""237.6""x=""922.5"" fill=""green""/></svg>","83","stim_present","test","green","right","html-keyboard-response","151","1400834","0.0-3.0-0.1-1.61","42hv","true"
"403.64500001305714","<svg height=""528"" width=""1230""><rect height=""52.8"" width=""52.8""y=""237.6""x=""588.6"" fill=""red""/></svg>","76","stim_present","test","red","middle","html-keyboard-response","153","1401748","0.0-3.0-0.1-1.62","42hv","true"
"453.41000001644716","<svg height=""528"" width=""1230""><rect height=""52.8"" width=""52.8""y=""237.6""x=""307.5"" fill=""green""/></svg>","83","stim_present","test","green","left","html-keyboard-response","155","1402708","0.0-3.0-0.1-1.63","42hv","true"
"528.0250000068918","<svg height=""528"" width=""1230""><rect height=""52.8"" width=""52.8""y=""237.6""x=""307.5"" fill=""red""/></svg>","76","stim_present","test","red","left","html-keyboard-response","157","1403748","0.0-3.0-0.1-1.64","42hv","true"
"476.8049999838695","<svg height=""528"" width=""1230""><rect height=""52.8"" width=""52.8""y=""237.6""x=""922.5"" fill=""red""/></svg>","76","stim_present","test","red","right","html-keyboard-response","159","1404728","0.0-3.0-0.1-1.65","42hv","true"
"751.0100000072271","<svg height=""528"" width=""1230""><rect height=""52.8"" width=""52.8""y=""237.6""x=""588.6"" fill=""red""/></svg>","76","stim_present","test","red","middle","html-keyboard-response","161","1405989","0.0-3.0-0.1-1.66","42hv","true"
"420.27000000234693","<svg height=""528"" width=""1230""><rect height=""52.8"" width=""52.8""y=""237.6""x=""588.6"" fill=""green""/></svg>","83","stim_present","test","green","middle","html-keyboard-response","163","1406914","0.0-3.0-0.1-1.67","42hv","true"
"402.52000000327826","<svg height=""528"" width=""1230""><rect height=""52.8"" width=""52.8""y=""237.6""x=""307.5"" fill=""green""/></svg>","83","stim_present","test","green","left","html-keyboard-response","165","1407825","0.0-3.0-0.1-1.68","42hv","true"
"581.3900000066496","<svg height=""528"" width=""1230""><rect height=""52.8"" width=""52.8""y=""237.6""x=""307.5"" fill=""red""/></svg>","76","stim_present","test","red","left","html-keyboard-response","167","1408924","0.0-3.0-0.1-1.69","42hv","true"
"456.91999996779487","<svg height=""528"" width=""1230""><rect height=""52.8"" width=""52.8""y=""237.6""x=""922.5"" fill=""green""/></svg>","83","stim_present","test","green","right","html-keyboard-response","169","1409890","0.0-3.0-0.1-1.70","42hv","true"
"558.7900000391528","<svg height=""528"" width=""1230""><rect height=""52.8"" width=""52.8""y=""237.6""x=""922.5"" fill=""red""/></svg>","76","stim_present","test","red","right","html-keyboard-response","171","1410964","0.0-3.0-0.1-1.71","42hv","true"
"517.1949999639764","<svg height=""528"" width=""1230""><rect height=""52.8"" width=""52.8""y=""237.6""x=""922.5"" fill=""red""/></svg>","76","stim_present","test","red","right","html-keyboard-response","174","1413199","0.0-3.0-0.2-1.72","42hv","true"
"415.915000019595","<svg height=""528"" width=""1230""><rect height=""52.8"" width=""52.8""y=""237.6""x=""922.5"" fill=""green""/></svg>","83","stim_present","test","green","right","html-keyboard-response","176","1414125","0.0-3.0-0.2-1.73","42hv","true"
"429.7650000080466","<svg height=""528"" width=""1230""><rect height=""52.8"" width=""52.8""y=""237.6""x=""307.5"" fill=""red""/></svg>","76","stim_present","test","red","left","html-keyboard-response","178","1415069","0.0-3.0-0.2-1.74","42hv","true"
"437.0249999919906","<svg height=""528"" width=""1230""><rect height=""52.8"" width=""52.8""y=""237.6""x=""588.6"" fill=""green""/></svg>","83","stim_present","test","green","middle","html-keyboard-response","180","1416009","0.0-3.0-0.2-1.75","42hv","true"
"450.005000049714","<svg height=""528"" width=""1230""><rect height=""52.8"" width=""52.8""y=""237.6""x=""307.5"" fill=""green""/></svg>","83","stim_present","test","green","left","html-keyboard-response","182","1416975","0.0-3.0-0.2-1.76","42hv","true"
"372.5749999866821","<svg height=""528"" width=""1230""><rect height=""52.8"" width=""52.8""y=""237.6""x=""588.6"" fill=""red""/></svg>","76","stim_present","test","red","middle","html-keyboard-response","184","1417851","0.0-3.0-0.2-1.77","42hv","true"
"389.85999999567866","<svg height=""528"" width=""1230""><rect height=""52.8"" width=""52.8""y=""237.6""x=""307.5"" fill=""green""/></svg>","83","stim_present","test","green","left","html-keyboard-response","186","1418745","0.0-3.0-0.2-1.78","42hv","true"
"488.55499998899177","<svg height=""528"" width=""1230""><rect height=""52.8"" width=""52.8""y=""237.6""x=""588.6"" fill=""green""/></svg>","83","stim_present","test","green","middle","html-keyboard-response","188","1419740","0.0-3.0-0.2-1.79","42hv","true"
"393.6799999792129","<svg height=""528"" width=""1230""><rect height=""52.8"" width=""52.8""y=""237.6""x=""307.5"" fill=""red""/></svg>","76","stim_present","test","red","left","html-keyboard-response","190","1420650","0.0-3.0-0.2-1.80","42hv","true"
"378.13000002643093","<svg height=""528"" width=""1230""><rect height=""52.8"" width=""52.8""y=""237.6""x=""922.5"" fill=""green""/></svg>","83","stim_present","test","green","right","html-keyboard-response","192","1421540","0.0-3.0-0.2-1.81","42hv","true"
"432.6149999978952","<svg height=""528"" width=""1230""><rect height=""52.8"" width=""52.8""y=""237.6""x=""588.6"" fill=""red""/></svg>","76","stim_present","test","red","middle","html-keyboard-response","194","1422485","0.0-3.0-0.2-1.82","42hv","true"
"427.5900000357069","<svg height=""528"" width=""1230""><rect height=""52.8"" width=""52.8""y=""237.6""x=""922.5"" fill=""red""/></svg>","76","stim_present","test","red","right","html-keyboard-response","196","1423431","0.0-3.0-0.2-1.83","42hv","true"
"403.96999998483807","<svg height=""528"" width=""1230""><rect height=""52.8"" width=""52.8""y=""237.6""x=""588.6"" fill=""green""/></svg>","83","stim_present","test","green","middle","html-keyboard-response","198","1424341","0.0-3.0-0.2-1.84","42hv","true"
"327.16500002425164","<svg height=""528"" width=""1230""><rect height=""52.8"" width=""52.8""y=""237.6""x=""307.5"" fill=""green""/></svg>","83","stim_present","test","green","left","html-keyboard-response","200","1425186","0.0-3.0-0.2-1.85","42hv","true"
"440.2649999829009","<svg height=""528"" width=""1230""><rect height=""52.8"" width=""52.8""y=""237.6""x=""922.5"" fill=""green""/></svg>","83","stim_present","test","green","right","html-keyboard-response","202","1426141","0.0-3.0-0.2-1.86","42hv","true"
"390.28999995207414","<svg height=""528"" width=""1230""><rect height=""52.8"" width=""52.8""y=""237.6""x=""307.5"" fill=""red""/></svg>","76","stim_present","test","red","left","html-keyboard-response","204","1427041","0.0-3.0-0.2-1.87","42hv","true"
"413.7899999623187","<svg height=""528"" width=""1230""><rect height=""52.8"" width=""52.8""y=""237.6""x=""922.5"" fill=""red""/></svg>","83","stim_present","test","red","right","html-keyboard-response","206","1427971","0.0-3.0-0.2-1.88","42hv","false"
"479.9500000081025","<svg height=""528"" width=""1230""><rect height=""52.8"" width=""52.8""y=""237.6""x=""588.6"" fill=""red""/></svg>","83","stim_present","test","red","middle","html-keyboard-response","208","1428955","0.0-3.0-0.2-1.89","42hv","false"
"414.2899999860674","<svg height=""528"" width=""1230""><rect height=""52.8"" width=""52.8""y=""237.6""x=""307.5"" fill=""red""/></svg>","83","stim_present","test","red","left","html-keyboard-response","210","1429872","0.0-3.0-0.2-1.90","42hv","false"
"563.2149999728426","<svg height=""528"" width=""1230""><rect height=""52.8"" width=""52.8""y=""237.6""x=""922.5"" fill=""green""/></svg>","83","stim_present","test","green","right","html-keyboard-response","212","1430942","0.0-3.0-0.2-1.91","42hv","true"
"769.5500000263564","<svg height=""528"" width=""1230""><rect height=""52.8"" width=""52.8""y=""237.6""x=""922.5"" fill=""red""/></svg>","76","stim_present","test","red","right","html-keyboard-response","214","1432227","0.0-3.0-0.2-1.92","42hv","true"
"498.4800000092946","<svg height=""528"" width=""1230""><rect height=""52.8"" width=""52.8""y=""237.6""x=""588.6"" fill=""red""/></svg>","76","stim_present","test","red","middle","html-keyboard-response","216","1433241","0.0-3.0-0.2-1.93","42hv","true"
"440.23499998729676","<svg height=""528"" width=""1230""><rect height=""52.8"" width=""52.8""y=""237.6""x=""307.5"" fill=""green""/></svg>","83","stim_present","test","green","left","html-keyboard-response","218","1434187","0.0-3.0-0.2-1.94","42hv","true"
"465.5750000383705","<svg height=""528"" width=""1230""><rect height=""52.8"" width=""52.8""y=""237.6""x=""588.6"" fill=""green""/></svg>","83","stim_present","test","green","middle","html-keyboard-response","220","1435162","0.0-3.0-0.2-1.95","42hv","true"
"447.9799999971874","<svg height=""528"" width=""1230""><rect height=""52.8"" width=""52.8""y=""237.6""x=""588.6"" fill=""red""/></svg>","76","stim_present","test","red","middle","html-keyboard-response","222","1436126","0.0-3.0-0.2-1.96","42hv","true"
"562.2650000150315","<svg height=""528"" width=""1230""><rect height=""52.8"" width=""52.8""y=""237.6""x=""922.5"" fill=""green""/></svg>","83","stim_present","test","green","right","html-keyboard-response","224","1437203","0.0-3.0-0.2-1.97","42hv","true"
"460.2300000260584","<svg height=""528"" width=""1230""><rect height=""52.8"" width=""52.8""y=""237.6""x=""307.5"" fill=""green""/></svg>","83","stim_present","test","green","left","html-keyboard-response","226","1438167","0.0-3.0-0.2-1.98","42hv","true"
"446.9800000078976","<svg height=""528"" width=""1230""><rect height=""52.8"" width=""52.8""y=""237.6""x=""588.6"" fill=""green""/></svg>","83","stim_present","test","green","middle","html-keyboard-response","228","1439128","0.0-3.0-0.2-1.99","42hv","true"
"471.6499999631196","<svg height=""528"" width=""1230""><rect height=""52.8"" width=""52.8""y=""237.6""x=""922.5"" fill=""red""/></svg>","76","stim_present","test","red","right","html-keyboard-response","230","1440102","0.0-3.0-0.2-1.100","42hv","true"
"338.9350000070408","<svg height=""528"" width=""1230""><rect height=""52.8"" width=""52.8""y=""237.6""x=""307.5"" fill=""red""/></svg>","83","stim_present","test","red","left","html-keyboard-response","232","1440947","0.0-3.0-0.2-1.101","42hv","false"
"475.23000004002824","<svg height=""528"" width=""1230""><rect height=""52.8"" width=""52.8""y=""237.6""x=""307.5"" fill=""red""/></svg>","76","stim_present","test","red","left","html-keyboard-response","234","1441927","0.0-3.0-0.2-1.102","42hv","true"
"427.04999999841675","<svg height=""528"" width=""1230""><rect height=""52.8"" width=""52.8""y=""237.6""x=""588.6"" fill=""red""/></svg>","76","stim_present","test","red","middle","html-keyboard-response","236","1442869","0.0-3.0-0.2-1.103","42hv","true"
"452.17000000411645","<svg height=""528"" width=""1230""><rect height=""52.8"" width=""52.8""y=""237.6""x=""307.5"" fill=""green""/></svg>","83","stim_present","test","green","left","html-keyboard-response","238","1443828","0.0-3.0-0.2-1.104","42hv","true"
"461.9799999636598","<svg height=""528"" width=""1230""><rect height=""52.8"" width=""52.8""y=""237.6""x=""922.5"" fill=""green""/></svg>","83","stim_present","test","green","right","html-keyboard-response","240","1444793","0.0-3.0-0.2-1.105","42hv","true"
"465.0050000054762","<svg height=""528"" width=""1230""><rect height=""52.8"" width=""52.8""y=""237.6""x=""922.5"" fill=""red""/></svg>","76","stim_present","test","red","right","html-keyboard-response","242","1445768","0.0-3.0-0.2-1.106","42hv","true"
"436.29499996313825","<svg height=""528"" width=""1230""><rect height=""52.8"" width=""52.8""y=""237.6""x=""588.6"" fill=""green""/></svg>","83","stim_present","test","green","middle","html-keyboard-response","244","1446713","0.0-3.0-0.2-1.107","42hv","true"
"495.4550000256859","<svg height=""528"" width=""1230""><rect height=""52.8"" width=""52.8""y=""237.6""x=""922.5"" fill=""green""/></svg>","83","stim_present","test","green","right","html-keyboard-response","247","1448809","0.0-3.0-0.3-1.108","42hv","true"
"379.4650000054389","<svg height=""528"" width=""1230""><rect height=""52.8"" width=""52.8""y=""237.6""x=""588.6"" fill=""red""/></svg>","76","stim_present","test","red","middle","html-keyboard-response","249","1449695","0.0-3.0-0.3-1.109","42hv","true"
"423.03000000538304","<svg height=""528"" width=""1230""><rect height=""52.8"" width=""52.8""y=""237.6""x=""922.5"" fill=""red""/></svg>","76","stim_present","test","red","right","html-keyboard-response","251","1450632","0.0-3.0-0.3-1.110","42hv","true"
"378.6850000033155","<svg height=""528"" width=""1230""><rect height=""52.8"" width=""52.8""y=""237.6""x=""307.5"" fill=""green""/></svg>","83","stim_present","test","green","left","html-keyboard-response","253","1451523","0.0-3.0-0.3-1.111","42hv","true"
"408.37000001920387","<svg height=""528"" width=""1230""><rect height=""52.8"" width=""52.8""y=""237.6""x=""307.5"" fill=""red""/></svg>","76","stim_present","test","red","left","html-keyboard-response","255","1452442","0.0-3.0-0.3-1.112","42hv","true"
"471.86500002862886","<svg height=""528"" width=""1230""><rect height=""52.8"" width=""52.8""y=""237.6""x=""588.6"" fill=""green""/></svg>","83","stim_present","test","green","middle","html-keyboard-response","257","1453423","0.0-3.0-0.3-1.113","42hv","true"
"459.9700000253506","<svg height=""528"" width=""1230""><rect height=""52.8"" width=""52.8""y=""237.6""x=""922.5"" fill=""green""/></svg>","83","stim_present","test","green","right","html-keyboard-response","259","1454388","0.0-3.0-0.3-1.114","42hv","true"
"416.1599999642931","<svg height=""528"" width=""1230""><rect height=""52.8"" width=""52.8""y=""237.6""x=""307.5"" fill=""red""/></svg>","76","stim_present","test","red","left","html-keyboard-response","261","1455312","0.0-3.0-0.3-1.115","42hv","true"
"478.7600000272505","<svg height=""528"" width=""1230""><rect height=""52.8"" width=""52.8""y=""237.6""x=""588.6"" fill=""green""/></svg>","83","stim_present","test","green","middle","html-keyboard-response","263","1456304","0.0-3.0-0.3-1.116","42hv","true"
"385.2550000301562","<svg height=""528"" width=""1230""><rect height=""52.8"" width=""52.8""y=""237.6""x=""922.5"" fill=""red""/></svg>","76","stim_present","test","red","right","html-keyboard-response","265","1457197","0.0-3.0-0.3-1.117","42hv","true"
"468.4799999813549","<svg height=""528"" width=""1230""><rect height=""52.8"" width=""52.8""y=""237.6""x=""307.5"" fill=""green""/></svg>","83","stim_present","test","green","left","html-keyboard-response","267","1458169","0.0-3.0-0.3-1.118","42hv","true"
"457.94500003103167","<svg height=""528"" width=""1230""><rect height=""52.8"" width=""52.8""y=""237.6""x=""588.6"" fill=""red""/></svg>","76","stim_present","test","red","middle","html-keyboard-response","269","1459133","0.0-3.0-0.3-1.119","42hv","true"
"500.63500000396743","<svg height=""528"" width=""1230""><rect height=""52.8"" width=""52.8""y=""237.6""x=""922.5"" fill=""red""/></svg>","76","stim_present","test","red","right","html-keyboard-response","271","1460143","0.0-3.0-0.3-1.120","42hv","true"
"340.74499999405816","<svg height=""528"" width=""1230""><rect height=""52.8"" width=""52.8""y=""237.6""x=""307.5"" fill=""red""/></svg>","83","stim_present","test","red","left","html-keyboard-response","273","1460988","0.0-3.0-0.3-1.121","42hv","false"
"525.9150000056252","<svg height=""528"" width=""1230""><rect height=""52.8"" width=""52.8""y=""237.6""x=""588.6"" fill=""red""/></svg>","76","stim_present","test","red","middle","html-keyboard-response","275","1462028","0.0-3.0-0.3-1.122","42hv","true"
"493.0999999633059","<svg height=""528"" width=""1230""><rect height=""52.8"" width=""52.8""y=""237.6""x=""922.5"" fill=""green""/></svg>","83","stim_present","test","green","right","html-keyboard-response","277","1463033","0.0-3.0-0.3-1.123","42hv","true"
"438.17999999737367","<svg height=""528"" width=""1230""><rect height=""52.8"" width=""52.8""y=""237.6""x=""588.6"" fill=""green""/></svg>","83","stim_present","test","green","middle","html-keyboard-response","279","1463978","0.0-3.0-0.3-1.124","42hv","true"
"470.3900000313297","<svg height=""528"" width=""1230""><rect height=""52.8"" width=""52.8""y=""237.6""x=""307.5"" fill=""green""/></svg>","83","stim_present","test","green","left","html-keyboard-response","281","1464963","0.0-3.0-0.3-1.125","42hv","true"
"478.3750000060536","<svg height=""528"" width=""1230""><rect height=""52.8"" width=""52.8""y=""237.6""x=""307.5"" fill=""red""/></svg>","76","stim_present","test","red","left","html-keyboard-response","283","1465958","0.0-3.0-0.3-1.126","42hv","true"
"569.5749999722466","<svg height=""528"" width=""1230""><rect height=""52.8"" width=""52.8""y=""237.6""x=""922.5"" fill=""red""/></svg>","76","stim_present","test","red","right","html-keyboard-response","285","1467043","0.0-3.0-0.3-1.127","42hv","true"
"372.7450000005774","<svg height=""528"" width=""1230""><rect height=""52.8"" width=""52.8""y=""237.6""x=""588.6"" fill=""red""/></svg>","76","stim_present","test","red","middle","html-keyboard-response","287","1467928","0.0-3.0-0.3-1.128","42hv","true"
"843.5900000040419","<svg height=""528"" width=""1230""><rect height=""52.8"" width=""52.8""y=""237.6""x=""922.5"" fill=""green""/></svg>","83","stim_present","test","green","right","html-keyboard-response","289","1469279","0.0-3.0-0.3-1.129","42hv","true"
"354.97000004397705","<svg height=""528"" width=""1230""><rect height=""52.8"" width=""52.8""y=""237.6""x=""588.6"" fill=""green""/></svg>","83","stim_present","test","green","middle","html-keyboard-response","291","1470138","0.0-3.0-0.3-1.130","42hv","true"
"406.844999990426","<svg height=""528"" width=""1230""><rect height=""52.8"" width=""52.8""y=""237.6""x=""307.5"" fill=""green""/></svg>","83","stim_present","test","green","left","html-keyboard-response","293","1471048","0.0-3.0-0.3-1.131","42hv","true"
"388.01500003319234","<svg height=""528"" width=""1230""><rect height=""52.8"" width=""52.8""y=""237.6""x=""588.6"" fill=""red""/></svg>","76","stim_present","test","red","middle","html-keyboard-response","295","1471953","0.0-3.0-0.3-1.132","42hv","true"
"538.6399999842979","<svg height=""528"" width=""1230""><rect height=""52.8"" width=""52.8""y=""237.6""x=""588.6"" fill=""green""/></svg>","83","stim_present","test","green","middle","html-keyboard-response","297","1473008","0.0-3.0-0.3-1.133","42hv","true"
"401.5600000275299","<svg height=""528"" width=""1230""><rect height=""52.8"" width=""52.8""y=""237.6""x=""307.5"" fill=""red""/></svg>","76","stim_present","test","red","left","html-keyboard-response","299","1473928","0.0-3.0-0.3-1.134","42hv","true"
"503.11500002862886","<svg height=""528"" width=""1230""><rect height=""52.8"" width=""52.8""y=""237.6""x=""922.5"" fill=""red""/></svg>","83","stim_present","test","red","right","html-keyboard-response","301","1474938","0.0-3.0-0.3-1.135","42hv","false"
"467.66000002389774","<svg height=""528"" width=""1230""><rect height=""52.8"" width=""52.8""y=""237.6""x=""307.5"" fill=""green""/></svg>","83","stim_present","test","green","left","html-keyboard-response","303","1475918","0.0-3.0-0.3-1.136","42hv","true"
"378.484999993816","<svg height=""528"" width=""1230""><rect height=""52.8"" width=""52.8""y=""237.6""x=""922.5"" fill=""green""/></svg>","76","stim_present","test","green","right","html-keyboard-response","305","1476809","0.0-3.0-0.3-1.137","42hv","false"
"484.4499999890104","<svg height=""528"" width=""1230""><rect height=""52.8"" width=""52.8""y=""237.6""x=""922.5"" fill=""red""/></svg>","76","stim_present","test","red","right","html-keyboard-response","307","1477808","0.0-3.0-0.3-1.138","42hv","true"
"495.73500000406057","<svg height=""528"" width=""1230""><rect height=""52.8"" width=""52.8""y=""237.6""x=""307.5"" fill=""red""/></svg>","76","stim_present","test","red","left","html-keyboard-response","309","1478818","0.0-3.0-0.3-1.139","42hv","true"
"438.14499996369705","<svg height=""528"" width=""1230""><rect height=""52.8"" width=""52.8""y=""237.6""x=""922.5"" fill=""green""/></svg>","83","stim_present","test","green","right","html-keyboard-response","311","1479762","0.0-3.0-0.3-1.140","42hv","true"
"489.4699999713339","<svg height=""528"" width=""1230""><rect height=""52.8"" width=""52.8""y=""237.6""x=""307.5"" fill=""green""/></svg>","83","stim_present","test","green","left","html-keyboard-response","313","1480763","0.0-3.0-0.3-1.141","42hv","true"
"453.81999999517575","<svg height=""528"" width=""1230""><rect height=""52.8"" width=""52.8""y=""237.6""x=""588.6"" fill=""red""/></svg>","76","stim_present","test","red","middle","html-keyboard-response","315","1481732","0.0-3.0-0.3-1.142","42hv","true"
"537.5899999635294","<svg height=""528"" width=""1230""><rect height=""52.8"" width=""52.8""y=""237.6""x=""588.6"" fill=""green""/></svg>","83","stim_present","test","green","middle","html-keyboard-response","317","1482779","0.0-3.0-0.3-1.143","42hv","true"
