"rt","stimulus","key_press","type","part","color","position","trial_type","trial_index","time_elapsed","internal_node_id","subject","accuracy"
"498.1449999999659","<svg height=""518"" width=""1316""><rect height=""51.8"" width=""51.8""y=""233.1""x=""329"" fill=""red""/></svg>","76","stim_present","training","red","left","html-keyboard-response","3","9676","0.0-2.0-0.0-1.0","5lhz","true"
"454.99499999999716","<svg height=""518"" width=""1316""><rect height=""51.8"" width=""51.8""y=""233.1""x=""632.1"" fill=""green""/></svg>","83","stim_present","training","green","middle","html-keyboard-response","5","10633","0.0-2.0-0.0-1.1","5lhz","true"
"750.9999999999764","<svg height=""518"" width=""1316""><rect height=""51.8"" width=""51.8""y=""233.1""x=""987"" fill=""green""/></svg>","83","stim_present","training","green","right","html-keyboard-response","7","11888","0.0-2.0-0.0-1.2","5lhz","true"
"572.2850000000217","<svg height=""518"" width=""1316""><rect height=""51.8"" width=""51.8""y=""233.1""x=""987"" fill=""red""/></svg>","76","stim_present","training","red","right","html-keyboard-response","9","12961","0.0-2.0-0.0-1.3","5lhz","true"
"1192.3600000000079","<svg height=""518"" width=""1316""><rect height=""51.8"" width=""51.8""y=""233.1""x=""329"" fill=""green""/></svg>","83","stim_present","training","green","left","html-keyboard-response","11","14662","0.0-2.0-0.0-1.4","5lhz","true"
"367.774999999996","<svg height=""518"" width=""1316""><rect height=""51.8"" width=""51.8""y=""233.1""x=""632.1"" fill=""red""/></svg>","76","stim_present","training","red","middle","html-keyboard-response","13","15536","0.0-2.0-0.0-1.5","5lhz","true"
"820.3649999999816","<svg height=""518"" width=""1316""><rect height=""51.8"" width=""51.8""y=""233.1""x=""632.1"" fill=""green""/></svg>","83","stim_present","training","green","middle","html-keyboard-response","15","16869","0.0-2.0-0.0-1.6","5lhz","true"
"736.5049999999646","<svg height=""518"" width=""1316""><rect height=""51.8"" width=""51.8""y=""233.1""x=""987"" fill=""green""/></svg>","83","stim_present","training","green","right","html-keyboard-response","17","18116","0.0-2.0-0.0-1.7","5lhz","true"
"707.4949999999953","<svg height=""518"" width=""1316""><rect height=""51.8"" width=""51.8""y=""233.1""x=""632.1"" fill=""red""/></svg>","76","stim_present","training","red","middle","html-keyboard-response","19","19333","0.0-2.0-0.0-1.8","5lhz","true"
"467.9750000000204","<svg height=""518"" width=""1316""><rect height=""51.8"" width=""51.8""y=""233.1""x=""987"" fill=""red""/></svg>","76","stim_present","training","red","right","html-keyboard-response","21","20308","0.0-2.0-0.0-1.9","5lhz","true"
"570.6650000000191","<svg height=""518"" width=""1316""><rect height=""51.8"" width=""51.8""y=""233.1""x=""329"" fill=""green""/></svg>","83","stim_present","training","green","left","html-keyboard-response","23","21393","0.0-2.0-0.0-1.10","5lhz","true"
"523.3099999999795","<svg height=""518"" width=""1316""><rect height=""51.8"" width=""51.8""y=""233.1""x=""329"" fill=""red""/></svg>","76","stim_present","training","red","left","html-keyboard-response","25","22426","0.0-2.0-0.0-1.11","5lhz","true"
"561.230000000025","<svg height=""518"" width=""1316""><rect height=""51.8"" width=""51.8""y=""233.1""x=""987"" fill=""green""/></svg>","83","stim_present","test","green","right","html-keyboard-response","28","30901","0.0-3.0-0.0-1.0","5lhz","true"
"386.04499999996915","<svg height=""518"" width=""1316""><rect height=""51.8"" width=""51.8""y=""233.1""x=""329"" fill=""green""/></svg>","83","stim_present","test","green","left","html-keyboard-response","30","31805","0.0-3.0-0.0-1.1","5lhz","true"
"401.7450000000026","<svg height=""518"" width=""1316""><rect height=""51.8"" width=""51.8""y=""233.1""x=""632.1"" fill=""green""/></svg>","83","stim_present","test","green","middle","html-keyboard-response","32","32723","0.0-3.0-0.0-1.2","5lhz","true"
"340.11499999996886","<svg height=""518"" width=""1316""><rect height=""51.8"" width=""51.8""y=""233.1""x=""987"" fill=""red""/></svg>","76","stim_present","test","red","right","html-keyboard-response","34","33571","0.0-3.0-0.0-1.3","5lhz","true"
"432.3800000000192","<svg height=""518"" width=""1316""><rect height=""51.8"" width=""51.8""y=""233.1""x=""329"" fill=""red""/></svg>","83","stim_present","test","red","left","html-keyboard-response","36","34512","0.0-3.0-0.0-1.4","5lhz","false"
"582.445000000007","<svg height=""518"" width=""1316""><rect height=""51.8"" width=""51.8""y=""233.1""x=""632.1"" fill=""red""/></svg>","76","stim_present","test","red","middle","html-keyboard-response","38","35610","0.0-3.0-0.0-1.5","5lhz","true"
"519.3800000000119","<svg height=""518"" width=""1316""><rect height=""51.8"" width=""51.8""y=""233.1""x=""632.1"" fill=""green""/></svg>","83","stim_present","test","green","middle","html-keyboard-response","40","36645","0.0-3.0-0.0-1.6","5lhz","true"
"849.9799999999595","<svg height=""518"" width=""1316""><rect height=""51.8"" width=""51.8""y=""233.1""x=""329"" fill=""red""/></svg>","76","stim_present","test","red","left","html-keyboard-response","42","38008","0.0-3.0-0.0-1.7","5lhz","true"
"531.0699999999997","<svg height=""518"" width=""1316""><rect height=""51.8"" width=""51.8""y=""233.1""x=""329"" fill=""green""/></svg>","83","stim_present","test","green","left","html-keyboard-response","44","39052","0.0-3.0-0.0-1.8","5lhz","true"
"692.674999999952","<svg height=""518"" width=""1316""><rect height=""51.8"" width=""51.8""y=""233.1""x=""987"" fill=""red""/></svg>","76","stim_present","test","red","right","html-keyboard-response","46","40262","0.0-3.0-0.0-1.9","5lhz","true"
"476.78000000002066","<svg height=""518"" width=""1316""><rect height=""51.8"" width=""51.8""y=""233.1""x=""632.1"" fill=""red""/></svg>","76","stim_present","test","red","middle","html-keyboard-response","48","41245","0.0-3.0-0.0-1.10","5lhz","true"
"549.224999999984","<svg height=""518"" width=""1316""><rect height=""51.8"" width=""51.8""y=""233.1""x=""987"" fill=""green""/></svg>","83","stim_present","test","green","right","html-keyboard-response","50","42298","0.0-3.0-0.0-1.11","5lhz","true"
"741.7199999999866","<svg height=""518"" width=""1316""><rect height=""51.8"" width=""51.8""y=""233.1""x=""329"" fill=""red""/></svg>","76","stim_present","test","red","left","html-keyboard-response","52","43554","0.0-3.0-0.0-1.12","5lhz","true"
"536.8000000000247","<svg height=""518"" width=""1316""><rect height=""51.8"" width=""51.8""y=""233.1""x=""632.1"" fill=""red""/></svg>","76","stim_present","test","red","middle","html-keyboard-response","54","44650","0.0-3.0-0.0-1.13","5lhz","true"
"408.8449999999866","<svg height=""518"" width=""1316""><rect height=""51.8"" width=""51.8""y=""233.1""x=""987"" fill=""red""/></svg>","76","stim_present","test","red","right","html-keyboard-response","56","45569","0.0-3.0-0.0-1.14","5lhz","true"
"459.0899999999965","<svg height=""518"" width=""1316""><rect height=""51.8"" width=""51.8""y=""233.1""x=""632.1"" fill=""green""/></svg>","83","stim_present","test","green","middle","html-keyboard-response","58","46533","0.0-3.0-0.0-1.15","5lhz","true"
"445.6899999999514","<svg height=""518"" width=""1316""><rect height=""51.8"" width=""51.8""y=""233.1""x=""987"" fill=""green""/></svg>","83","stim_present","test","green","right","html-keyboard-response","60","47484","0.0-3.0-0.0-1.16","5lhz","true"
"343.8449999999939","<svg height=""518"" width=""1316""><rect height=""51.8"" width=""51.8""y=""233.1""x=""329"" fill=""green""/></svg>","83","stim_present","test","green","left","html-keyboard-response","62","48331","0.0-3.0-0.0-1.17","5lhz","true"
"358.6199999999735","<svg height=""518"" width=""1316""><rect height=""51.8"" width=""51.8""y=""233.1""x=""632.1"" fill=""green""/></svg>","83","stim_present","test","green","middle","html-keyboard-response","64","49194","0.0-3.0-0.0-1.18","5lhz","true"
"496.2249999999767","<svg height=""518"" width=""1316""><rect height=""51.8"" width=""51.8""y=""233.1""x=""329"" fill=""red""/></svg>","76","stim_present","test","red","left","html-keyboard-response","66","50210","0.0-3.0-0.0-1.19","5lhz","true"
"611.4700000000012","<svg height=""518"" width=""1316""><rect height=""51.8"" width=""51.8""y=""233.1""x=""329"" fill=""green""/></svg>","83","stim_present","test","green","left","html-keyboard-response","68","51329","0.0-3.0-0.0-1.20","5lhz","true"
"774.830000000009","<svg height=""518"" width=""1316""><rect height=""51.8"" width=""51.8""y=""233.1""x=""632.1"" fill=""red""/></svg>","76","stim_present","test","red","middle","html-keyboard-response","70","52618","0.0-3.0-0.0-1.21","5lhz","true"
"669.4549999999726","<svg height=""518"" width=""1316""><rect height=""51.8"" width=""51.8""y=""233.1""x=""987"" fill=""green""/></svg>","83","stim_present","test","green","right","html-keyboard-response","72","53805","0.0-3.0-0.0-1.22","5lhz","true"
"461.36000000000786","<svg height=""518"" width=""1316""><rect height=""51.8"" width=""51.8""y=""233.1""x=""987"" fill=""red""/></svg>","76","stim_present","test","red","right","html-keyboard-response","74","54783","0.0-3.0-0.0-1.23","5lhz","true"
"510.03500000001804","<svg height=""518"" width=""1316""><rect height=""51.8"" width=""51.8""y=""233.1""x=""329"" fill=""red""/></svg>","76","stim_present","test","red","left","html-keyboard-response","76","55798","0.0-3.0-0.0-1.24","5lhz","true"
"562.5799999999726","<svg height=""518"" width=""1316""><rect height=""51.8"" width=""51.8""y=""233.1""x=""987"" fill=""green""/></svg>","83","stim_present","test","green","right","html-keyboard-response","78","56866","0.0-3.0-0.0-1.25","5lhz","true"
"448.8650000000125","<svg height=""518"" width=""1316""><rect height=""51.8"" width=""51.8""y=""233.1""x=""987"" fill=""red""/></svg>","76","stim_present","test","red","right","html-keyboard-response","80","57827","0.0-3.0-0.0-1.26","5lhz","true"
"667.549999999952","<svg height=""518"" width=""1316""><rect height=""51.8"" width=""51.8""y=""233.1""x=""329"" fill=""green""/></svg>","83","stim_present","test","green","left","html-keyboard-response","82","58999","0.0-3.0-0.0-1.27","5lhz","true"
"344.50499999997555","<svg height=""518"" width=""1316""><rect height=""51.8"" width=""51.8""y=""233.1""x=""632.1"" fill=""red""/></svg>","76","stim_present","test","red","middle","html-keyboard-response","84","59856","0.0-3.0-0.0-1.28","5lhz","true"
"529.9400000000169","<svg height=""518"" width=""1316""><rect height=""51.8"" width=""51.8""y=""233.1""x=""632.1"" fill=""green""/></svg>","83","stim_present","test","green","middle","html-keyboard-response","86","60892","0.0-3.0-0.0-1.29","5lhz","true"
"569.599999999984","<svg height=""518"" width=""1316""><rect height=""51.8"" width=""51.8""y=""233.1""x=""987"" fill=""green""/></svg>","83","stim_present","test","green","right","html-keyboard-response","88","61978","0.0-3.0-0.0-1.30","5lhz","true"
"458.22999999995227","<svg height=""518"" width=""1316""><rect height=""51.8"" width=""51.8""y=""233.1""x=""329"" fill=""red""/></svg>","76","stim_present","test","red","left","html-keyboard-response","90","62948","0.0-3.0-0.0-1.31","5lhz","true"
"367.570000000007","<svg height=""518"" width=""1316""><rect height=""51.8"" width=""51.8""y=""233.1""x=""632.1"" fill=""green""/></svg>","83","stim_present","test","green","middle","html-keyboard-response","92","63823","0.0-3.0-0.0-1.32","5lhz","true"
"480.52000000001135","<svg height=""518"" width=""1316""><rect height=""51.8"" width=""51.8""y=""233.1""x=""987"" fill=""red""/></svg>","76","stim_present","test","red","right","html-keyboard-response","94","64816","0.0-3.0-0.0-1.33","5lhz","true"
"559.8899999999994","<svg height=""518"" width=""1316""><rect height=""51.8"" width=""51.8""y=""233.1""x=""632.1"" fill=""red""/></svg>","76","stim_present","test","red","middle","html-keyboard-response","96","65878","0.0-3.0-0.0-1.34","5lhz","true"
"419.1049999999959","<svg height=""518"" width=""1316""><rect height=""51.8"" width=""51.8""y=""233.1""x=""329"" fill=""green""/></svg>","83","stim_present","test","green","left","html-keyboard-response","98","66802","0.0-3.0-0.0-1.35","5lhz","true"
"698.5800000000017","<svg height=""518"" width=""1316""><rect height=""51.8"" width=""51.8""y=""233.1""x=""987"" fill=""red""/></svg>","76","stim_present","test","red","right","html-keyboard-response","101","69635","0.0-3.0-0.1-1.36","5lhz","true"
"1032.9949999999808","<svg height=""518"" width=""1316""><rect height=""51.8"" width=""51.8""y=""233.1""x=""329"" fill=""red""/></svg>","76","stim_present","test","red","left","html-keyboard-response","103","71183","0.0-3.0-0.1-1.37","5lhz","true"
"386.98499999998603","<svg height=""518"" width=""1316""><rect height=""51.8"" width=""51.8""y=""233.1""x=""632.1"" fill=""green""/></svg>","83","stim_present","test","green","middle","html-keyboard-response","105","72083","0.0-3.0-0.1-1.38","5lhz","true"
"486.3799999999901","<svg height=""518"" width=""1316""><rect height=""51.8"" width=""51.8""y=""233.1""x=""987"" fill=""green""/></svg>","83","stim_present","test","green","right","html-keyboard-response","107","73082","0.0-3.0-0.1-1.39","5lhz","true"
"400.3950000000041","<svg height=""518"" width=""1316""><rect height=""51.8"" width=""51.8""y=""233.1""x=""632.1"" fill=""red""/></svg>","76","stim_present","test","red","middle","html-keyboard-response","109","73994","0.0-3.0-0.1-1.40","5lhz","true"
"651.8199999999779","<svg height=""518"" width=""1316""><rect height=""51.8"" width=""51.8""y=""233.1""x=""329"" fill=""green""/></svg>","76","stim_present","test","green","left","html-keyboard-response","111","75159","0.0-3.0-0.1-1.41","5lhz","false"
"2248.099999999962","<svg height=""518"" width=""1316""><rect height=""51.8"" width=""51.8""y=""233.1""x=""987"" fill=""green""/></svg>","76","stim_present","test","green","right","html-keyboard-response","113","77920","0.0-3.0-0.1-1.42","5lhz","false"
"2518.289999999979","<svg height=""518"" width=""1316""><rect height=""51.8"" width=""51.8""y=""233.1""x=""632.1"" fill=""red""/></svg>","76","stim_present","test","red","middle","html-keyboard-response","115","80952","0.0-3.0-0.1-1.43","5lhz","true"
"850.5350000000326","<svg height=""518"" width=""1316""><rect height=""51.8"" width=""51.8""y=""233.1""x=""329"" fill=""red""/></svg>","76","stim_present","test","red","left","html-keyboard-response","117","82310","0.0-3.0-0.1-1.44","5lhz","true"
"508.91500000000815","<svg height=""518"" width=""1316""><rect height=""51.8"" width=""51.8""y=""233.1""x=""987"" fill=""red""/></svg>","76","stim_present","test","red","right","html-keyboard-response","119","83334","0.0-3.0-0.1-1.45","5lhz","true"
"479.68000000003667","<svg height=""518"" width=""1316""><rect height=""51.8"" width=""51.8""y=""233.1""x=""632.1"" fill=""green""/></svg>","83","stim_present","test","green","middle","html-keyboard-response","121","84321","0.0-3.0-0.1-1.46","5lhz","true"
"378.3099999999977","<svg height=""518"" width=""1316""><rect height=""51.8"" width=""51.8""y=""233.1""x=""329"" fill=""green""/></svg>","83","stim_present","test","green","left","html-keyboard-response","123","85216","0.0-3.0-0.1-1.47","5lhz","true"
"417.16000000001804","<svg height=""518"" width=""1316""><rect height=""51.8"" width=""51.8""y=""233.1""x=""632.1"" fill=""red""/></svg>","76","stim_present","test","red","middle","html-keyboard-response","125","86137","0.0-3.0-0.1-1.48","5lhz","true"
"645.6850000000122","<svg height=""518"" width=""1316""><rect height=""51.8"" width=""51.8""y=""233.1""x=""329"" fill=""red""/></svg>","76","stim_present","test","red","left","html-keyboard-response","127","87296","0.0-3.0-0.1-1.49","5lhz","true"
"500.85999999998603","<svg height=""518"" width=""1316""><rect height=""51.8"" width=""51.8""y=""233.1""x=""329"" fill=""green""/></svg>","83","stim_present","test","green","left","html-keyboard-response","129","88300","0.0-3.0-0.1-1.50","5lhz","true"
"430.37999999994645","<svg height=""518"" width=""1316""><rect height=""51.8"" width=""51.8""y=""233.1""x=""632.1"" fill=""green""/></svg>","83","stim_present","test","green","middle","html-keyboard-response","131","89243","0.0-3.0-0.1-1.51","5lhz","true"
"795.894999999975","<svg height=""518"" width=""1316""><rect height=""51.8"" width=""51.8""y=""233.1""x=""987"" fill=""red""/></svg>","76","stim_present","test","red","right","html-keyboard-response","133","90557","0.0-3.0-0.1-1.52","5lhz","true"
"1246.789999999979","<svg height=""518"" width=""1316""><rect height=""51.8"" width=""51.8""y=""233.1""x=""987"" fill=""green""/></svg>","83","stim_present","test","green","right","html-keyboard-response","135","92321","0.0-3.0-0.1-1.53","5lhz","true"
"514.8250000000407","<svg height=""518"" width=""1316""><rect height=""51.8"" width=""51.8""y=""233.1""x=""632.1"" fill=""green""/></svg>","83","stim_present","test","green","middle","html-keyboard-response","137","93353","0.0-3.0-0.1-1.54","5lhz","true"
"411.4849999999715","<svg height=""518"" width=""1316""><rect height=""51.8"" width=""51.8""y=""233.1""x=""632.1"" fill=""red""/></svg>","76","stim_present","test","red","middle","html-keyboard-response","139","94281","0.0-3.0-0.1-1.55","5lhz","true"
"422.80000000004657","<svg height=""518"" width=""1316""><rect height=""51.8"" width=""51.8""y=""233.1""x=""987"" fill=""red""/></svg>","76","stim_present","test","red","right","html-keyboard-response","141","95208","0.0-3.0-0.1-1.56","5lhz","true"
"639.0650000000169","<svg height=""518"" width=""1316""><rect height=""51.8"" width=""51.8""y=""233.1""x=""987"" fill=""green""/></svg>","83","stim_present","test","green","right","html-keyboard-response","143","96356","0.0-3.0-0.1-1.57","5lhz","true"
"491.42999999997846","<svg height=""518"" width=""1316""><rect height=""51.8"" width=""51.8""y=""233.1""x=""329"" fill=""green""/></svg>","83","stim_present","test","green","left","html-keyboard-response","145","97355","0.0-3.0-0.1-1.58","5lhz","true"
"451.76500000001397","<svg height=""518"" width=""1316""><rect height=""51.8"" width=""51.8""y=""233.1""x=""329"" fill=""red""/></svg>","76","stim_present","test","red","left","html-keyboard-response","147","98316","0.0-3.0-0.1-1.59","5lhz","true"
"377.5200000000041","<svg height=""518"" width=""1316""><rect height=""51.8"" width=""51.8""y=""233.1""x=""329"" fill=""red""/></svg>","76","stim_present","test","red","left","html-keyboard-response","149","99203","0.0-3.0-0.1-1.60","5lhz","true"
"418.95500000003085","<svg height=""518"" width=""1316""><rect height=""51.8"" width=""51.8""y=""233.1""x=""987"" fill=""red""/></svg>","83","stim_present","test","red","right","html-keyboard-response","151","100127","0.0-3.0-0.1-1.61","5lhz","false"
"510.79999999995925","<svg height=""518"" width=""1316""><rect height=""51.8"" width=""51.8""y=""233.1""x=""632.1"" fill=""green""/></svg>","83","stim_present","test","green","middle","html-keyboard-response","153","101150","0.0-3.0-0.1-1.62","5lhz","true"
"479.78999999997905","<svg height=""518"" width=""1316""><rect height=""51.8"" width=""51.8""y=""233.1""x=""632.1"" fill=""red""/></svg>","76","stim_present","test","red","middle","html-keyboard-response","155","102135","0.0-3.0-0.1-1.63","5lhz","true"
"697.0799999999726","<svg height=""518"" width=""1316""><rect height=""51.8"" width=""51.8""y=""233.1""x=""329"" fill=""green""/></svg>","83","stim_present","test","green","left","html-keyboard-response","157","103348","0.0-3.0-0.1-1.64","5lhz","true"
"570.1750000000029","<svg height=""518"" width=""1316""><rect height=""51.8"" width=""51.8""y=""233.1""x=""987"" fill=""green""/></svg>","83","stim_present","test","green","right","html-keyboard-response","159","104436","0.0-3.0-0.1-1.65","5lhz","true"
"419.3700000000099","<svg height=""518"" width=""1316""><rect height=""51.8"" width=""51.8""y=""233.1""x=""987"" fill=""green""/></svg>","83","stim_present","test","green","right","html-keyboard-response","161","105370","0.0-3.0-0.1-1.66","5lhz","true"
"419.78999999997905","<svg height=""518"" width=""1316""><rect height=""51.8"" width=""51.8""y=""233.1""x=""632.1"" fill=""red""/></svg>","76","stim_present","test","red","middle","html-keyboard-response","163","106299","0.0-3.0-0.1-1.67","5lhz","true"
"581.7099999999919","<svg height=""518"" width=""1316""><rect height=""51.8"" width=""51.8""y=""233.1""x=""632.1"" fill=""green""/></svg>","83","stim_present","test","green","middle","html-keyboard-response","165","107391","0.0-3.0-0.1-1.68","5lhz","true"
"469.9100000000326","<svg height=""518"" width=""1316""><rect height=""51.8"" width=""51.8""y=""233.1""x=""987"" fill=""red""/></svg>","76","stim_present","test","red","right","html-keyboard-response","167","108377","0.0-3.0-0.1-1.69","5lhz","true"
"702.6949999999488","<svg height=""518"" width=""1316""><rect height=""51.8"" width=""51.8""y=""233.1""x=""329"" fill=""red""/></svg>","76","stim_present","test","red","left","html-keyboard-response","169","109592","0.0-3.0-0.1-1.70","5lhz","true"
"540.8699999999808","<svg height=""518"" width=""1316""><rect height=""51.8"" width=""51.8""y=""233.1""x=""329"" fill=""green""/></svg>","83","stim_present","test","green","left","html-keyboard-response","171","110644","0.0-3.0-0.1-1.71","5lhz","true"
"425.35500000002503","<svg height=""518"" width=""1316""><rect height=""51.8"" width=""51.8""y=""233.1""x=""987"" fill=""red""/></svg>","76","stim_present","test","red","right","html-keyboard-response","174","114053","0.0-3.0-0.2-1.72","5lhz","true"
"449.25","<svg height=""518"" width=""1316""><rect height=""51.8"" width=""51.8""y=""233.1""x=""329"" fill=""green""/></svg>","83","stim_present","test","green","left","html-keyboard-response","176","115011","0.0-3.0-0.2-1.73","5lhz","true"
"483.8099999999977","<svg height=""518"" width=""1316""><rect height=""51.8"" width=""51.8""y=""233.1""x=""632.1"" fill=""green""/></svg>","83","stim_present","test","green","middle","html-keyboard-response","178","116009","0.0-3.0-0.2-1.74","5lhz","true"
"423.0350000000326","<svg height=""518"" width=""1316""><rect height=""51.8"" width=""51.8""y=""233.1""x=""632.1"" fill=""red""/></svg>","76","stim_present","test","red","middle","html-keyboard-response","180","116946","0.0-3.0-0.2-1.75","5lhz","true"
"944.105000000025","<svg height=""518"" width=""1316""><rect height=""51.8"" width=""51.8""y=""233.1""x=""987"" fill=""green""/></svg>","83","stim_present","test","green","right","html-keyboard-response","182","118399","0.0-3.0-0.2-1.76","5lhz","true"
"873.5849999999919","<svg height=""518"" width=""1316""><rect height=""51.8"" width=""51.8""y=""233.1""x=""329"" fill=""red""/></svg>","76","stim_present","test","red","left","html-keyboard-response","184","119776","0.0-3.0-0.2-1.77","5lhz","true"
"446.5450000000128","<svg height=""518"" width=""1316""><rect height=""51.8"" width=""51.8""y=""233.1""x=""987"" fill=""green""/></svg>","83","stim_present","test","green","right","html-keyboard-response","186","120733","0.0-3.0-0.2-1.78","5lhz","true"
"619.7500000000146","<svg height=""518"" width=""1316""><rect height=""51.8"" width=""51.8""y=""233.1""x=""329"" fill=""green""/></svg>","83","stim_present","test","green","left","html-keyboard-response","188","121868","0.0-3.0-0.2-1.79","5lhz","true"
"464.2250000000058","<svg height=""518"" width=""1316""><rect height=""51.8"" width=""51.8""y=""233.1""x=""632.1"" fill=""green""/></svg>","83","stim_present","test","green","middle","html-keyboard-response","190","122842","0.0-3.0-0.2-1.80","5lhz","true"
"459.8399999999965","<svg height=""518"" width=""1316""><rect height=""51.8"" width=""51.8""y=""233.1""x=""329"" fill=""red""/></svg>","76","stim_present","test","red","left","html-keyboard-response","192","123820","0.0-3.0-0.2-1.81","5lhz","true"
"781.7799999999697","<svg height=""518"" width=""1316""><rect height=""51.8"" width=""51.8""y=""233.1""x=""987"" fill=""red""/></svg>","76","stim_present","test","red","right","html-keyboard-response","194","125108","0.0-3.0-0.2-1.82","5lhz","true"
"443.77999999999884","<svg height=""518"" width=""1316""><rect height=""51.8"" width=""51.8""y=""233.1""x=""632.1"" fill=""red""/></svg>","76","stim_present","test","red","middle","html-keyboard-response","196","126066","0.0-3.0-0.2-1.83","5lhz","true"
"518.0450000000274","<svg height=""518"" width=""1316""><rect height=""51.8"" width=""51.8""y=""233.1""x=""329"" fill=""red""/></svg>","76","stim_present","test","red","left","html-keyboard-response","198","127089","0.0-3.0-0.2-1.84","5lhz","true"
"397.90000000003783","<svg height=""518"" width=""1316""><rect height=""51.8"" width=""51.8""y=""233.1""x=""632.1"" fill=""red""/></svg>","76","stim_present","test","red","middle","html-keyboard-response","200","127999","0.0-3.0-0.2-1.85","5lhz","true"
"385.77999999999884","<svg height=""518"" width=""1316""><rect height=""51.8"" width=""51.8""y=""233.1""x=""987"" fill=""red""/></svg>","76","stim_present","test","red","right","html-keyboard-response","202","128902","0.0-3.0-0.2-1.86","5lhz","true"
"515.9149999999936","<svg height=""518"" width=""1316""><rect height=""51.8"" width=""51.8""y=""233.1""x=""329"" fill=""green""/></svg>","83","stim_present","test","green","left","html-keyboard-response","204","129930","0.0-3.0-0.2-1.87","5lhz","true"
"467.2850000000035","<svg height=""518"" width=""1316""><rect height=""51.8"" width=""51.8""y=""233.1""x=""632.1"" fill=""green""/></svg>","83","stim_present","test","green","middle","html-keyboard-response","206","130913","0.0-3.0-0.2-1.88","5lhz","true"
"741.1799999999639","<svg height=""518"" width=""1316""><rect height=""51.8"" width=""51.8""y=""233.1""x=""987"" fill=""green""/></svg>","83","stim_present","test","green","right","html-keyboard-response","208","132168","0.0-3.0-0.2-1.89","5lhz","true"
"394.93499999996857","<svg height=""518"" width=""1316""><rect height=""51.8"" width=""51.8""y=""233.1""x=""632.1"" fill=""green""/></svg>","83","stim_present","test","green","middle","html-keyboard-response","210","133071","0.0-3.0-0.2-1.90","5lhz","true"
"457.17499999998836","<svg height=""518"" width=""1316""><rect height=""51.8"" width=""51.8""y=""233.1""x=""987"" fill=""green""/></svg>","83","stim_present","test","green","right","html-keyboard-response","212","134046","0.0-3.0-0.2-1.91","5lhz","true"
"362.90499999999884","<svg height=""518"" width=""1316""><rect height=""51.8"" width=""51.8""y=""233.1""x=""329"" fill=""green""/></svg>","83","stim_present","test","green","left","html-keyboard-response","214","134916","0.0-3.0-0.2-1.92","5lhz","true"
"1195.9049999999697","<svg height=""518"" width=""1316""><rect height=""51.8"" width=""51.8""y=""233.1""x=""987"" fill=""red""/></svg>","76","stim_present","test","red","right","html-keyboard-response","216","136615","0.0-3.0-0.2-1.93","5lhz","true"
"489.1949999999779","<svg height=""518"" width=""1316""><rect height=""51.8"" width=""51.8""y=""233.1""x=""329"" fill=""red""/></svg>","76","stim_present","test","red","left","html-keyboard-response","218","137621","0.0-3.0-0.2-1.94","5lhz","true"
"345.16500000003725","<svg height=""518"" width=""1316""><rect height=""51.8"" width=""51.8""y=""233.1""x=""632.1"" fill=""red""/></svg>","76","stim_present","test","red","middle","html-keyboard-response","220","138475","0.0-3.0-0.2-1.95","5lhz","true"
"611.6200000000244","<svg height=""518"" width=""1316""><rect height=""51.8"" width=""51.8""y=""233.1""x=""329"" fill=""green""/></svg>","83","stim_present","test","green","left","html-keyboard-response","222","139591","0.0-3.0-0.2-1.96","5lhz","true"
"361.5550000000221","<svg height=""518"" width=""1316""><rect height=""51.8"" width=""51.8""y=""233.1""x=""632.1"" fill=""green""/></svg>","83","stim_present","test","green","middle","html-keyboard-response","224","140470","0.0-3.0-0.2-1.97","5lhz","true"
"420.9200000000128","<svg height=""518"" width=""1316""><rect height=""51.8"" width=""51.8""y=""233.1""x=""987"" fill=""green""/></svg>","83","stim_present","test","green","right","html-keyboard-response","226","141396","0.0-3.0-0.2-1.98","5lhz","true"
"468.61000000001513","<svg height=""518"" width=""1316""><rect height=""51.8"" width=""51.8""y=""233.1""x=""987"" fill=""red""/></svg>","76","stim_present","test","red","right","html-keyboard-response","228","142374","0.0-3.0-0.2-1.99","5lhz","true"
"396.7749999999942","<svg height=""518"" width=""1316""><rect height=""51.8"" width=""51.8""y=""233.1""x=""632.1"" fill=""red""/></svg>","76","stim_present","test","red","middle","html-keyboard-response","230","143284","0.0-3.0-0.2-1.100","5lhz","true"
"521.1699999999837","<svg height=""518"" width=""1316""><rect height=""51.8"" width=""51.8""y=""233.1""x=""329"" fill=""red""/></svg>","76","stim_present","test","red","left","html-keyboard-response","232","144323","0.0-3.0-0.2-1.101","5lhz","true"
"424.2499999999709","<svg height=""518"" width=""1316""><rect height=""51.8"" width=""51.8""y=""233.1""x=""987"" fill=""red""/></svg>","76","stim_present","test","red","right","html-keyboard-response","234","145258","0.0-3.0-0.2-1.102","5lhz","true"
"426.33499999999185","<svg height=""518"" width=""1316""><rect height=""51.8"" width=""51.8""y=""233.1""x=""329"" fill=""red""/></svg>","76","stim_present","test","red","left","html-keyboard-response","236","146192","0.0-3.0-0.2-1.103","5lhz","true"
"334.34500000000116","<svg height=""518"" width=""1316""><rect height=""51.8"" width=""51.8""y=""233.1""x=""632.1"" fill=""red""/></svg>","76","stim_present","test","red","middle","html-keyboard-response","238","147032","0.0-3.0-0.2-1.104","5lhz","true"
"523.0749999999243","<svg height=""518"" width=""1316""><rect height=""51.8"" width=""51.8""y=""233.1""x=""632.1"" fill=""green""/></svg>","83","stim_present","test","green","middle","html-keyboard-response","240","148067","0.0-3.0-0.2-1.105","5lhz","true"
"600.4749999999767","<svg height=""518"" width=""1316""><rect height=""51.8"" width=""51.8""y=""233.1""x=""987"" fill=""green""/></svg>","83","stim_present","test","green","right","html-keyboard-response","242","149177","0.0-3.0-0.2-1.106","5lhz","true"
"509.6249999999709","<svg height=""518"" width=""1316""><rect height=""51.8"" width=""51.8""y=""233.1""x=""329"" fill=""green""/></svg>","83","stim_present","test","green","left","html-keyboard-response","244","150200","0.0-3.0-0.2-1.107","5lhz","true"
"394.13000000003376","<svg height=""518"" width=""1316""><rect height=""51.8"" width=""51.8""y=""233.1""x=""987"" fill=""red""/></svg>","76","stim_present","test","red","right","html-keyboard-response","247","154160","0.0-3.0-0.3-1.108","5lhz","true"
"395.61000000004424","<svg height=""518"" width=""1316""><rect height=""51.8"" width=""51.8""y=""233.1""x=""329"" fill=""green""/></svg>","83","stim_present","test","green","left","html-keyboard-response","249","155060","0.0-3.0-0.3-1.109","5lhz","true"
"1033.6900000000314","<svg height=""518"" width=""1316""><rect height=""51.8"" width=""51.8""y=""233.1""x=""632.1"" fill=""red""/></svg>","76","stim_present","test","red","middle","html-keyboard-response","251","156614","0.0-3.0-0.3-1.110","5lhz","true"
"760.0849999999919","<svg height=""518"" width=""1316""><rect height=""51.8"" width=""51.8""y=""233.1""x=""329"" fill=""red""/></svg>","76","stim_present","test","red","left","html-keyboard-response","253","157885","0.0-3.0-0.3-1.111","5lhz","true"
"586.0749999999243","<svg height=""518"" width=""1316""><rect height=""51.8"" width=""51.8""y=""233.1""x=""632.1"" fill=""green""/></svg>","83","stim_present","test","green","middle","html-keyboard-response","255","158977","0.0-3.0-0.3-1.112","5lhz","true"
"368.0900000000547","<svg height=""518"" width=""1316""><rect height=""51.8"" width=""51.8""y=""233.1""x=""987"" fill=""green""/></svg>","83","stim_present","test","green","right","html-keyboard-response","257","159855","0.0-3.0-0.3-1.113","5lhz","true"
"439.10499999992317","<svg height=""518"" width=""1316""><rect height=""51.8"" width=""51.8""y=""233.1""x=""632.1"" fill=""red""/></svg>","76","stim_present","test","red","middle","html-keyboard-response","259","160808","0.0-3.0-0.3-1.114","5lhz","true"
"542.5","<svg height=""518"" width=""1316""><rect height=""51.8"" width=""51.8""y=""233.1""x=""329"" fill=""green""/></svg>","83","stim_present","test","green","left","html-keyboard-response","261","161860","0.0-3.0-0.3-1.115","5lhz","true"
"535.6850000000559","<svg height=""518"" width=""1316""><rect height=""51.8"" width=""51.8""y=""233.1""x=""987"" fill=""red""/></svg>","76","stim_present","test","red","right","html-keyboard-response","263","162902","0.0-3.0-0.3-1.116","5lhz","true"
"790.984999999986","<svg height=""518"" width=""1316""><rect height=""51.8"" width=""51.8""y=""233.1""x=""632.1"" fill=""green""/></svg>","83","stim_present","test","green","middle","html-keyboard-response","265","164203","0.0-3.0-0.3-1.117","5lhz","true"
"449.99499999993714","<svg height=""518"" width=""1316""><rect height=""51.8"" width=""51.8""y=""233.1""x=""987"" fill=""green""/></svg>","83","stim_present","test","green","right","html-keyboard-response","267","165162","0.0-3.0-0.3-1.118","5lhz","true"
"480.51499999995576","<svg height=""518"" width=""1316""><rect height=""51.8"" width=""51.8""y=""233.1""x=""329"" fill=""red""/></svg>","76","stim_present","test","red","left","html-keyboard-response","269","166155","0.0-3.0-0.3-1.119","5lhz","true"
"456.44000000003143","<svg height=""518"" width=""1316""><rect height=""51.8"" width=""51.8""y=""233.1""x=""329"" fill=""red""/></svg>","76","stim_present","test","red","left","html-keyboard-response","271","167130","0.0-3.0-0.3-1.120","5lhz","true"
"473.3300000000454","<svg height=""518"" width=""1316""><rect height=""51.8"" width=""51.8""y=""233.1""x=""632.1"" fill=""green""/></svg>","83","stim_present","test","green","middle","html-keyboard-response","273","168111","0.0-3.0-0.3-1.121","5lhz","true"
"416.7699999999313","<svg height=""518"" width=""1316""><rect height=""51.8"" width=""51.8""y=""233.1""x=""329"" fill=""green""/></svg>","83","stim_present","test","green","left","html-keyboard-response","275","169037","0.0-3.0-0.3-1.122","5lhz","true"
"473.0650000000023","<svg height=""518"" width=""1316""><rect height=""51.8"" width=""51.8""y=""233.1""x=""632.1"" fill=""red""/></svg>","76","stim_present","test","red","middle","html-keyboard-response","277","170023","0.0-3.0-0.3-1.123","5lhz","true"
"430.24500000002445","<svg height=""518"" width=""1316""><rect height=""51.8"" width=""51.8""y=""233.1""x=""987"" fill=""green""/></svg>","83","stim_present","test","green","right","html-keyboard-response","279","170963","0.0-3.0-0.3-1.124","5lhz","true"
"460.9450000000361","<svg height=""518"" width=""1316""><rect height=""51.8"" width=""51.8""y=""233.1""x=""987"" fill=""red""/></svg>","76","stim_present","test","red","right","html-keyboard-response","281","171941","0.0-3.0-0.3-1.125","5lhz","true"
"539.5750000000116","<svg height=""518"" width=""1316""><rect height=""51.8"" width=""51.8""y=""233.1""x=""987"" fill=""green""/></svg>","83","stim_present","test","green","right","html-keyboard-response","283","172985","0.0-3.0-0.3-1.126","5lhz","true"
"531.5299999999697","<svg height=""518"" width=""1316""><rect height=""51.8"" width=""51.8""y=""233.1""x=""632.1"" fill=""green""/></svg>","83","stim_present","test","green","middle","html-keyboard-response","285","174024","0.0-3.0-0.3-1.127","5lhz","true"
"445.14500000004773","<svg height=""518"" width=""1316""><rect height=""51.8"" width=""51.8""y=""233.1""x=""329"" fill=""red""/></svg>","76","stim_present","test","red","left","html-keyboard-response","287","174985","0.0-3.0-0.3-1.128","5lhz","true"
"446.4199999999837","<svg height=""518"" width=""1316""><rect height=""51.8"" width=""51.8""y=""233.1""x=""987"" fill=""red""/></svg>","76","stim_present","test","red","right","html-keyboard-response","289","175936","0.0-3.0-0.3-1.129","5lhz","true"
"321.60499999995227","<svg height=""518"" width=""1316""><rect height=""51.8"" width=""51.8""y=""233.1""x=""632.1"" fill=""red""/></svg>","76","stim_present","test","red","middle","html-keyboard-response","291","176775","0.0-3.0-0.3-1.130","5lhz","true"
"381.6150000000198","<svg height=""518"" width=""1316""><rect height=""51.8"" width=""51.8""y=""233.1""x=""329"" fill=""green""/></svg>","83","stim_present","test","green","left","html-keyboard-response","293","177667","0.0-3.0-0.3-1.131","5lhz","true"
"412.02000000010594","<svg height=""518"" width=""1316""><rect height=""51.8"" width=""51.8""y=""233.1""x=""329"" fill=""green""/></svg>","83","stim_present","test","green","left","html-keyboard-response","295","178595","0.0-3.0-0.3-1.132","5lhz","true"
"577.7500000000291","<svg height=""518"" width=""1316""><rect height=""51.8"" width=""51.8""y=""233.1""x=""329"" fill=""red""/></svg>","76","stim_present","test","red","left","html-keyboard-response","297","179676","0.0-3.0-0.3-1.133","5lhz","true"
"556.795000000071","<svg height=""518"" width=""1316""><rect height=""51.8"" width=""51.8""y=""233.1""x=""987"" fill=""green""/></svg>","83","stim_present","test","green","right","html-keyboard-response","299","180737","0.0-3.0-0.3-1.134","5lhz","true"
"515.3150000000023","<svg height=""518"" width=""1316""><rect height=""51.8"" width=""51.8""y=""233.1""x=""632.1"" fill=""green""/></svg>","83","stim_present","test","green","middle","html-keyboard-response","301","181759","0.0-3.0-0.3-1.135","5lhz","true"
"803.7849999999453","<svg height=""518"" width=""1316""><rect height=""51.8"" width=""51.8""y=""233.1""x=""987"" fill=""red""/></svg>","76","stim_present","test","red","right","html-keyboard-response","303","183078","0.0-3.0-0.3-1.136","5lhz","true"
"337.0800000000163","<svg height=""518"" width=""1316""><rect height=""51.8"" width=""51.8""y=""233.1""x=""632.1"" fill=""red""/></svg>","76","stim_present","test","red","middle","html-keyboard-response","305","183925","0.0-3.0-0.3-1.137","5lhz","true"
"453.92499999993015","<svg height=""518"" width=""1316""><rect height=""51.8"" width=""51.8""y=""233.1""x=""329"" fill=""green""/></svg>","83","stim_present","test","green","left","html-keyboard-response","307","184890","0.0-3.0-0.3-1.138","5lhz","true"
"385.0600000000559","<svg height=""518"" width=""1316""><rect height=""51.8"" width=""51.8""y=""233.1""x=""987"" fill=""green""/></svg>","76","stim_present","test","green","right","html-keyboard-response","309","185787","0.0-3.0-0.3-1.139","5lhz","false"
"710.3650000000489","<svg height=""518"" width=""1316""><rect height=""51.8"" width=""51.8""y=""233.1""x=""987"" fill=""red""/></svg>","76","stim_present","test","red","right","html-keyboard-response","311","187010","0.0-3.0-0.3-1.140","5lhz","true"
"467.12000000002445","<svg height=""518"" width=""1316""><rect height=""51.8"" width=""51.8""y=""233.1""x=""632.1"" fill=""green""/></svg>","83","stim_present","test","green","middle","html-keyboard-response","313","187982","0.0-3.0-0.3-1.141","5lhz","true"
"600.9949999999953","<svg height=""518"" width=""1316""><rect height=""51.8"" width=""51.8""y=""233.1""x=""329"" fill=""red""/></svg>","76","stim_present","test","red","left","html-keyboard-response","315","189097","0.0-3.0-0.3-1.142","5lhz","true"
"452.8649999999907","<svg height=""518"" width=""1316""><rect height=""51.8"" width=""51.8""y=""233.1""x=""632.1"" fill=""red""/></svg>","76","stim_present","test","red","middle","html-keyboard-response","317","190063","0.0-3.0-0.3-1.143","5lhz","true"
