"rt","stimulus","key_press","type","part","color","position","trial_type","trial_index","time_elapsed","internal_node_id","subject","accuracy"
"670.0000000000073","<svg height=""645"" width=""1390""><rect height=""64.5"" width=""64.5""y=""290.25""x=""347.5"" fill=""red""/></svg>","83","stim_present","training","red","left","html-keyboard-response","3","35518","0.0-2.0-0.0-1.0","k70m","false"
"517","<svg height=""645"" width=""1390""><rect height=""64.5"" width=""64.5""y=""290.25""x=""662.75"" fill=""red""/></svg>","83","stim_present","training","red","middle","html-keyboard-response","5","36540","0.0-2.0-0.0-1.1","k70m","false"
"447","<svg height=""645"" width=""1390""><rect height=""64.5"" width=""64.5""y=""290.25""x=""662.75"" fill=""green""/></svg>","76","stim_present","training","green","middle","html-keyboard-response","7","37491","0.0-2.0-0.0-1.2","k70m","false"
"410","<svg height=""645"" width=""1390""><rect height=""64.5"" width=""64.5""y=""290.25""x=""347.5"" fill=""green""/></svg>","76","stim_present","training","green","left","html-keyboard-response","9","38405","0.0-2.0-0.0-1.3","k70m","false"
"339","<svg height=""645"" width=""1390""><rect height=""64.5"" width=""64.5""y=""290.25""x=""1042.5"" fill=""green""/></svg>","76","stim_present","training","green","right","html-keyboard-response","11","39249","0.0-2.0-0.0-1.4","k70m","false"
"429","<svg height=""645"" width=""1390""><rect height=""64.5"" width=""64.5""y=""290.25""x=""1042.5"" fill=""red""/></svg>","83","stim_present","training","red","right","html-keyboard-response","13","40182","0.0-2.0-0.0-1.5","k70m","false"
"363","<svg height=""645"" width=""1390""><rect height=""64.5"" width=""64.5""y=""290.25""x=""1042.5"" fill=""red""/></svg>","83","stim_present","training","red","right","html-keyboard-response","15","41050","0.0-2.0-0.0-1.6","k70m","false"
"385","<svg height=""645"" width=""1390""><rect height=""64.5"" width=""64.5""y=""290.25""x=""347.5"" fill=""green""/></svg>","76","stim_present","training","green","left","html-keyboard-response","17","41940","0.0-2.0-0.0-1.7","k70m","false"
"670","<svg height=""645"" width=""1390""><rect height=""64.5"" width=""64.5""y=""290.25""x=""1042.5"" fill=""green""/></svg>","76","stim_present","training","green","right","html-keyboard-response","19","43115","0.0-2.0-0.0-1.8","k70m","false"
"398.0000000000073","<svg height=""645"" width=""1390""><rect height=""64.5"" width=""64.5""y=""290.25""x=""347.5"" fill=""red""/></svg>","83","stim_present","training","red","left","html-keyboard-response","21","44017","0.0-2.0-0.0-1.9","k70m","false"
"399","<svg height=""645"" width=""1390""><rect height=""64.5"" width=""64.5""y=""290.25""x=""662.75"" fill=""red""/></svg>","83","stim_present","training","red","middle","html-keyboard-response","23","44921","0.0-2.0-0.0-1.10","k70m","false"
"391","<svg height=""645"" width=""1390""><rect height=""64.5"" width=""64.5""y=""290.25""x=""662.75"" fill=""green""/></svg>","76","stim_present","training","green","middle","html-keyboard-response","25","45817","0.0-2.0-0.0-1.11","k70m","false"
"368","<svg height=""645"" width=""1390""><rect height=""64.5"" width=""64.5""y=""290.25""x=""1042.5"" fill=""green""/></svg>","76","stim_present","test","green","right","html-keyboard-response","28","54438","0.0-3.0-0.0-1.0","k70m","false"
"360","<svg height=""645"" width=""1390""><rect height=""64.5"" width=""64.5""y=""290.25""x=""662.75"" fill=""red""/></svg>","83","stim_present","test","red","middle","html-keyboard-response","30","55302","0.0-3.0-0.0-1.1","k70m","false"
"382","<svg height=""645"" width=""1390""><rect height=""64.5"" width=""64.5""y=""290.25""x=""347.5"" fill=""green""/></svg>","76","stim_present","test","green","left","html-keyboard-response","32","56187","0.0-3.0-0.0-1.2","k70m","false"
"321","<svg height=""645"" width=""1390""><rect height=""64.5"" width=""64.5""y=""290.25""x=""1042.5"" fill=""red""/></svg>","83","stim_present","test","red","right","html-keyboard-response","34","57012","0.0-3.0-0.0-1.3","k70m","false"
"391.9999999999927","<svg height=""645"" width=""1390""><rect height=""64.5"" width=""64.5""y=""290.25""x=""347.5"" fill=""red""/></svg>","76","stim_present","test","red","left","html-keyboard-response","36","57909","0.0-3.0-0.0-1.4","k70m","true"
"368.0000000000073","<svg height=""645"" width=""1390""><rect height=""64.5"" width=""64.5""y=""290.25""x=""662.75"" fill=""green""/></svg>","76","stim_present","test","green","middle","html-keyboard-response","38","58781","0.0-3.0-0.0-1.5","k70m","false"
"407","<svg height=""645"" width=""1390""><rect height=""64.5"" width=""64.5""y=""290.25""x=""347.5"" fill=""red""/></svg>","83","stim_present","test","red","left","html-keyboard-response","40","59693","0.0-3.0-0.0-1.6","k70m","false"
"355.9999999999927","<svg height=""645"" width=""1390""><rect height=""64.5"" width=""64.5""y=""290.25""x=""662.75"" fill=""green""/></svg>","76","stim_present","test","green","middle","html-keyboard-response","42","60552","0.0-3.0-0.0-1.7","k70m","false"
"366","<svg height=""645"" width=""1390""><rect height=""64.5"" width=""64.5""y=""290.25""x=""1042.5"" fill=""green""/></svg>","76","stim_present","test","green","right","html-keyboard-response","44","61423","0.0-3.0-0.0-1.8","k70m","false"
"468","<svg height=""645"" width=""1390""><rect height=""64.5"" width=""64.5""y=""290.25""x=""1042.5"" fill=""red""/></svg>","83","stim_present","test","red","right","html-keyboard-response","46","62396","0.0-3.0-0.0-1.9","k70m","false"
"408","<svg height=""645"" width=""1390""><rect height=""64.5"" width=""64.5""y=""290.25""x=""347.5"" fill=""green""/></svg>","76","stim_present","test","green","left","html-keyboard-response","48","63309","0.0-3.0-0.0-1.10","k70m","false"
"408.9999999999927","<svg height=""645"" width=""1390""><rect height=""64.5"" width=""64.5""y=""290.25""x=""662.75"" fill=""red""/></svg>","76","stim_present","test","red","middle","html-keyboard-response","50","64222","0.0-3.0-0.0-1.11","k70m","true"
"780.9999999999927","<svg height=""645"" width=""1390""><rect height=""64.5"" width=""64.5""y=""290.25""x=""347.5"" fill=""red""/></svg>","83","stim_present","test","red","left","html-keyboard-response","52","65507","0.0-3.0-0.0-1.12","k70m","false"
"379","<svg height=""645"" width=""1390""><rect height=""64.5"" width=""64.5""y=""290.25""x=""347.5"" fill=""green""/></svg>","83","stim_present","test","green","left","html-keyboard-response","54","66389","0.0-3.0-0.0-1.13","k70m","true"
"661","<svg height=""645"" width=""1390""><rect height=""64.5"" width=""64.5""y=""290.25""x=""662.75"" fill=""green""/></svg>","76","stim_present","test","green","middle","html-keyboard-response","56","67555","0.0-3.0-0.0-1.14","k70m","false"
"394","<svg height=""645"" width=""1390""><rect height=""64.5"" width=""64.5""y=""290.25""x=""1042.5"" fill=""red""/></svg>","83","stim_present","test","red","right","html-keyboard-response","58","68453","0.0-3.0-0.0-1.15","k70m","false"
"351","<svg height=""645"" width=""1390""><rect height=""64.5"" width=""64.5""y=""290.25""x=""662.75"" fill=""red""/></svg>","83","stim_present","test","red","middle","html-keyboard-response","60","69308","0.0-3.0-0.0-1.16","k70m","false"
"358.00000000001455","<svg height=""645"" width=""1390""><rect height=""64.5"" width=""64.5""y=""290.25""x=""1042.5"" fill=""green""/></svg>","76","stim_present","test","green","right","html-keyboard-response","62","70172","0.0-3.0-0.0-1.17","k70m","false"
"435","<svg height=""645"" width=""1390""><rect height=""64.5"" width=""64.5""y=""290.25""x=""347.5"" fill=""red""/></svg>","83","stim_present","test","red","left","html-keyboard-response","64","71111","0.0-3.0-0.0-1.18","k70m","false"
"354","<svg height=""645"" width=""1390""><rect height=""64.5"" width=""64.5""y=""290.25""x=""1042.5"" fill=""green""/></svg>","76","stim_present","test","green","right","html-keyboard-response","66","71969","0.0-3.0-0.0-1.19","k70m","false"
"317","<svg height=""645"" width=""1390""><rect height=""64.5"" width=""64.5""y=""290.25""x=""347.5"" fill=""green""/></svg>","83","stim_present","test","green","left","html-keyboard-response","68","72790","0.0-3.0-0.0-1.20","k70m","true"
"628","<svg height=""645"" width=""1390""><rect height=""64.5"" width=""64.5""y=""290.25""x=""662.75"" fill=""red""/></svg>","83","stim_present","test","red","middle","html-keyboard-response","70","73923","0.0-3.0-0.0-1.21","k70m","false"
"440","<svg height=""645"" width=""1390""><rect height=""64.5"" width=""64.5""y=""290.25""x=""1042.5"" fill=""red""/></svg>","83","stim_present","test","red","right","html-keyboard-response","72","74866","0.0-3.0-0.0-1.22","k70m","false"
"411","<svg height=""645"" width=""1390""><rect height=""64.5"" width=""64.5""y=""290.25""x=""662.75"" fill=""green""/></svg>","76","stim_present","test","green","middle","html-keyboard-response","74","75781","0.0-3.0-0.0-1.23","k70m","false"
"421","<svg height=""645"" width=""1390""><rect height=""64.5"" width=""64.5""y=""290.25""x=""1042.5"" fill=""green""/></svg>","76","stim_present","test","green","right","html-keyboard-response","76","76706","0.0-3.0-0.0-1.24","k70m","false"
"349.00000000001455","<svg height=""645"" width=""1390""><rect height=""64.5"" width=""64.5""y=""290.25""x=""662.75"" fill=""green""/></svg>","76","stim_present","test","green","middle","html-keyboard-response","78","77559","0.0-3.0-0.0-1.25","k70m","false"
"370","<svg height=""645"" width=""1390""><rect height=""64.5"" width=""64.5""y=""290.25""x=""347.5"" fill=""red""/></svg>","83","stim_present","test","red","left","html-keyboard-response","80","78433","0.0-3.0-0.0-1.26","k70m","false"
"367.99999999998545","<svg height=""645"" width=""1390""><rect height=""64.5"" width=""64.5""y=""290.25""x=""662.75"" fill=""red""/></svg>","83","stim_present","test","red","middle","html-keyboard-response","82","79305","0.0-3.0-0.0-1.27","k70m","false"
"423.99999999998545","<svg height=""645"" width=""1390""><rect height=""64.5"" width=""64.5""y=""290.25""x=""1042.5"" fill=""red""/></svg>","83","stim_present","test","red","right","html-keyboard-response","84","80233","0.0-3.0-0.0-1.28","k70m","false"
"372","<svg height=""645"" width=""1390""><rect height=""64.5"" width=""64.5""y=""290.25""x=""347.5"" fill=""green""/></svg>","76","stim_present","test","green","left","html-keyboard-response","86","81109","0.0-3.0-0.0-1.29","k70m","false"
"393","<svg height=""645"" width=""1390""><rect height=""64.5"" width=""64.5""y=""290.25""x=""662.75"" fill=""red""/></svg>","83","stim_present","test","red","middle","html-keyboard-response","88","82006","0.0-3.0-0.0-1.30","k70m","false"
"385","<svg height=""645"" width=""1390""><rect height=""64.5"" width=""64.5""y=""290.25""x=""347.5"" fill=""red""/></svg>","83","stim_present","test","red","left","html-keyboard-response","90","82895","0.0-3.0-0.0-1.31","k70m","false"
"458","<svg height=""645"" width=""1390""><rect height=""64.5"" width=""64.5""y=""290.25""x=""1042.5"" fill=""red""/></svg>","83","stim_present","test","red","right","html-keyboard-response","92","83857","0.0-3.0-0.0-1.32","k70m","false"
"380","<svg height=""645"" width=""1390""><rect height=""64.5"" width=""64.5""y=""290.25""x=""347.5"" fill=""green""/></svg>","76","stim_present","test","green","left","html-keyboard-response","94","84742","0.0-3.0-0.0-1.33","k70m","false"
"354","<svg height=""645"" width=""1390""><rect height=""64.5"" width=""64.5""y=""290.25""x=""1042.5"" fill=""green""/></svg>","76","stim_present","test","green","right","html-keyboard-response","96","85600","0.0-3.0-0.0-1.34","k70m","false"
"319.00000000001455","<svg height=""645"" width=""1390""><rect height=""64.5"" width=""64.5""y=""290.25""x=""662.75"" fill=""green""/></svg>","76","stim_present","test","green","middle","html-keyboard-response","98","86422","0.0-3.0-0.0-1.35","k70m","false"
"342","<svg height=""645"" width=""1390""><rect height=""64.5"" width=""64.5""y=""290.25""x=""662.75"" fill=""green""/></svg>","76","stim_present","test","green","middle","html-keyboard-response","101","90317","0.0-3.0-0.1-1.36","k70m","false"
"527.9999999999854","<svg height=""645"" width=""1390""><rect height=""64.5"" width=""64.5""y=""290.25""x=""662.75"" fill=""red""/></svg>","83","stim_present","test","red","middle","html-keyboard-response","103","91349","0.0-3.0-0.1-1.37","k70m","false"
"440.00000000001455","<svg height=""645"" width=""1390""><rect height=""64.5"" width=""64.5""y=""290.25""x=""1042.5"" fill=""green""/></svg>","76","stim_present","test","green","right","html-keyboard-response","105","92297","0.0-3.0-0.1-1.38","k70m","false"
"411","<svg height=""645"" width=""1390""><rect height=""64.5"" width=""64.5""y=""290.25""x=""1042.5"" fill=""red""/></svg>","83","stim_present","test","red","right","html-keyboard-response","107","93212","0.0-3.0-0.1-1.39","k70m","false"
"410","<svg height=""645"" width=""1390""><rect height=""64.5"" width=""64.5""y=""290.25""x=""347.5"" fill=""green""/></svg>","76","stim_present","test","green","left","html-keyboard-response","109","94126","0.0-3.0-0.1-1.40","k70m","false"
"336","<svg height=""645"" width=""1390""><rect height=""64.5"" width=""64.5""y=""290.25""x=""347.5"" fill=""red""/></svg>","83","stim_present","test","red","left","html-keyboard-response","111","94966","0.0-3.0-0.1-1.41","k70m","false"
"366","<svg height=""645"" width=""1390""><rect height=""64.5"" width=""64.5""y=""290.25""x=""662.75"" fill=""red""/></svg>","83","stim_present","test","red","middle","html-keyboard-response","113","95837","0.0-3.0-0.1-1.42","k70m","false"
"393","<svg height=""645"" width=""1390""><rect height=""64.5"" width=""64.5""y=""290.25""x=""1042.5"" fill=""red""/></svg>","83","stim_present","test","red","right","html-keyboard-response","115","96733","0.0-3.0-0.1-1.43","k70m","false"
"338","<svg height=""645"" width=""1390""><rect height=""64.5"" width=""64.5""y=""290.25""x=""347.5"" fill=""red""/></svg>","83","stim_present","test","red","left","html-keyboard-response","117","97576","0.0-3.0-0.1-1.44","k70m","false"
"388","<svg height=""645"" width=""1390""><rect height=""64.5"" width=""64.5""y=""290.25""x=""347.5"" fill=""green""/></svg>","76","stim_present","test","green","left","html-keyboard-response","119","98469","0.0-3.0-0.1-1.45","k70m","false"
"366","<svg height=""645"" width=""1390""><rect height=""64.5"" width=""64.5""y=""290.25""x=""662.75"" fill=""green""/></svg>","76","stim_present","test","green","middle","html-keyboard-response","121","99339","0.0-3.0-0.1-1.46","k70m","false"
"305","<svg height=""645"" width=""1390""><rect height=""64.5"" width=""64.5""y=""290.25""x=""1042.5"" fill=""green""/></svg>","76","stim_present","test","green","right","html-keyboard-response","123","100148","0.0-3.0-0.1-1.47","k70m","false"
"397.00000000001455","<svg height=""645"" width=""1390""><rect height=""64.5"" width=""64.5""y=""290.25""x=""347.5"" fill=""green""/></svg>","76","stim_present","test","green","left","html-keyboard-response","125","101050","0.0-3.0-0.1-1.48","k70m","false"
"280","<svg height=""645"" width=""1390""><rect height=""64.5"" width=""64.5""y=""290.25""x=""1042.5"" fill=""green""/></svg>","76","stim_present","test","green","right","html-keyboard-response","127","101833","0.0-3.0-0.1-1.49","k70m","false"
"414","<svg height=""645"" width=""1390""><rect height=""64.5"" width=""64.5""y=""290.25""x=""347.5"" fill=""red""/></svg>","83","stim_present","test","red","left","html-keyboard-response","129","102751","0.0-3.0-0.1-1.50","k70m","false"
"343","<svg height=""645"" width=""1390""><rect height=""64.5"" width=""64.5""y=""290.25""x=""662.75"" fill=""green""/></svg>","76","stim_present","test","green","middle","html-keyboard-response","131","103598","0.0-3.0-0.1-1.51","k70m","false"
"377","<svg height=""645"" width=""1390""><rect height=""64.5"" width=""64.5""y=""290.25""x=""662.75"" fill=""red""/></svg>","83","stim_present","test","red","middle","html-keyboard-response","133","104479","0.0-3.0-0.1-1.52","k70m","false"
"331","<svg height=""645"" width=""1390""><rect height=""64.5"" width=""64.5""y=""290.25""x=""1042.5"" fill=""red""/></svg>","83","stim_present","test","red","right","html-keyboard-response","135","105315","0.0-3.0-0.1-1.53","k70m","false"
"356","<svg height=""645"" width=""1390""><rect height=""64.5"" width=""64.5""y=""290.25""x=""1042.5"" fill=""green""/></svg>","83","stim_present","test","green","right","html-keyboard-response","137","106175","0.0-3.0-0.1-1.54","k70m","true"
"358.99999999998545","<svg height=""645"" width=""1390""><rect height=""64.5"" width=""64.5""y=""290.25""x=""662.75"" fill=""green""/></svg>","76","stim_present","test","green","middle","html-keyboard-response","139","107039","0.0-3.0-0.1-1.55","k70m","false"
"312","<svg height=""645"" width=""1390""><rect height=""64.5"" width=""64.5""y=""290.25""x=""662.75"" fill=""red""/></svg>","76","stim_present","test","red","middle","html-keyboard-response","141","107859","0.0-3.0-0.1-1.56","k70m","true"
"551","<svg height=""645"" width=""1390""><rect height=""64.5"" width=""64.5""y=""290.25""x=""347.5"" fill=""red""/></svg>","83","stim_present","test","red","left","html-keyboard-response","143","108914","0.0-3.0-0.1-1.57","k70m","false"
"451.99999999998545","<svg height=""645"" width=""1390""><rect height=""64.5"" width=""64.5""y=""290.25""x=""1042.5"" fill=""red""/></svg>","83","stim_present","test","red","right","html-keyboard-response","145","109869","0.0-3.0-0.1-1.58","k70m","false"
"367","<svg height=""645"" width=""1390""><rect height=""64.5"" width=""64.5""y=""290.25""x=""347.5"" fill=""green""/></svg>","76","stim_present","test","green","left","html-keyboard-response","147","110741","0.0-3.0-0.1-1.59","k70m","false"
"379","<svg height=""645"" width=""1390""><rect height=""64.5"" width=""64.5""y=""290.25""x=""1042.5"" fill=""red""/></svg>","76","stim_present","test","red","right","html-keyboard-response","149","111624","0.0-3.0-0.1-1.60","k70m","true"
"471","<svg height=""645"" width=""1390""><rect height=""64.5"" width=""64.5""y=""290.25""x=""347.5"" fill=""red""/></svg>","83","stim_present","test","red","left","html-keyboard-response","151","112599","0.0-3.0-0.1-1.61","k70m","false"
"516","<svg height=""645"" width=""1390""><rect height=""64.5"" width=""64.5""y=""290.25""x=""662.75"" fill=""green""/></svg>","76","stim_present","test","green","middle","html-keyboard-response","153","113619","0.0-3.0-0.1-1.62","k70m","false"
"428.00000000001455","<svg height=""645"" width=""1390""><rect height=""64.5"" width=""64.5""y=""290.25""x=""662.75"" fill=""red""/></svg>","83","stim_present","test","red","middle","html-keyboard-response","155","114551","0.0-3.0-0.1-1.63","k70m","false"
"378","<svg height=""645"" width=""1390""><rect height=""64.5"" width=""64.5""y=""290.25""x=""1042.5"" fill=""green""/></svg>","76","stim_present","test","green","right","html-keyboard-response","157","115433","0.0-3.0-0.1-1.64","k70m","false"
"465","<svg height=""645"" width=""1390""><rect height=""64.5"" width=""64.5""y=""290.25""x=""347.5"" fill=""green""/></svg>","76","stim_present","test","green","left","html-keyboard-response","159","116403","0.0-3.0-0.1-1.65","k70m","false"
"387","<svg height=""645"" width=""1390""><rect height=""64.5"" width=""64.5""y=""290.25""x=""662.75"" fill=""red""/></svg>","83","stim_present","test","red","middle","html-keyboard-response","161","117294","0.0-3.0-0.1-1.66","k70m","false"
"385.99999999998545","<svg height=""645"" width=""1390""><rect height=""64.5"" width=""64.5""y=""290.25""x=""662.75"" fill=""green""/></svg>","76","stim_present","test","green","middle","html-keyboard-response","163","118184","0.0-3.0-0.1-1.67","k70m","false"
"373.99999999998545","<svg height=""645"" width=""1390""><rect height=""64.5"" width=""64.5""y=""290.25""x=""1042.5"" fill=""green""/></svg>","76","stim_present","test","green","right","html-keyboard-response","165","119062","0.0-3.0-0.1-1.68","k70m","false"
"379.99999999998545","<svg height=""645"" width=""1390""><rect height=""64.5"" width=""64.5""y=""290.25""x=""1042.5"" fill=""red""/></svg>","83","stim_present","test","red","right","html-keyboard-response","167","119946","0.0-3.0-0.1-1.69","k70m","false"
"428.99999999998545","<svg height=""645"" width=""1390""><rect height=""64.5"" width=""64.5""y=""290.25""x=""347.5"" fill=""green""/></svg>","76","stim_present","test","green","left","html-keyboard-response","169","120879","0.0-3.0-0.1-1.70","k70m","false"
"399","<svg height=""645"" width=""1390""><rect height=""64.5"" width=""64.5""y=""290.25""x=""347.5"" fill=""red""/></svg>","76","stim_present","test","red","left","html-keyboard-response","171","121782","0.0-3.0-0.1-1.71","k70m","true"
"598","<svg height=""645"" width=""1390""><rect height=""64.5"" width=""64.5""y=""290.25""x=""662.75"" fill=""red""/></svg>","83","stim_present","test","red","middle","html-keyboard-response","174","122961","0.0-3.0-0.2-1.72","k70m","false"
"320","<svg height=""645"" width=""1390""><rect height=""64.5"" width=""64.5""y=""290.25""x=""347.5"" fill=""red""/></svg>","83","stim_present","test","red","left","html-keyboard-response","176","123786","0.0-3.0-0.2-1.73","k70m","false"
"441","<svg height=""645"" width=""1390""><rect height=""64.5"" width=""64.5""y=""290.25""x=""1042.5"" fill=""red""/></svg>","76","stim_present","test","red","right","html-keyboard-response","178","124731","0.0-3.0-0.2-1.74","k70m","true"
"387","<svg height=""645"" width=""1390""><rect height=""64.5"" width=""64.5""y=""290.25""x=""662.75"" fill=""green""/></svg>","76","stim_present","test","green","middle","html-keyboard-response","180","125622","0.0-3.0-0.2-1.75","k70m","false"
"419.00000000001455","<svg height=""645"" width=""1390""><rect height=""64.5"" width=""64.5""y=""290.25""x=""347.5"" fill=""green""/></svg>","76","stim_present","test","green","left","html-keyboard-response","182","126545","0.0-3.0-0.2-1.76","k70m","false"
"357.00000000001455","<svg height=""645"" width=""1390""><rect height=""64.5"" width=""64.5""y=""290.25""x=""1042.5"" fill=""green""/></svg>","76","stim_present","test","green","right","html-keyboard-response","184","127406","0.0-3.0-0.2-1.77","k70m","false"
"382.00000000001455","<svg height=""645"" width=""1390""><rect height=""64.5"" width=""64.5""y=""290.25""x=""347.5"" fill=""green""/></svg>","76","stim_present","test","green","left","html-keyboard-response","186","128292","0.0-3.0-0.2-1.78","k70m","false"
"305","<svg height=""645"" width=""1390""><rect height=""64.5"" width=""64.5""y=""290.25""x=""1042.5"" fill=""green""/></svg>","76","stim_present","test","green","right","html-keyboard-response","188","129101","0.0-3.0-0.2-1.79","k70m","false"
"373.00000000001455","<svg height=""645"" width=""1390""><rect height=""64.5"" width=""64.5""y=""290.25""x=""347.5"" fill=""red""/></svg>","83","stim_present","test","red","left","html-keyboard-response","190","129978","0.0-3.0-0.2-1.80","k70m","false"
"367","<svg height=""645"" width=""1390""><rect height=""64.5"" width=""64.5""y=""290.25""x=""1042.5"" fill=""red""/></svg>","83","stim_present","test","red","right","html-keyboard-response","192","130849","0.0-3.0-0.2-1.81","k70m","false"
"361","<svg height=""645"" width=""1390""><rect height=""64.5"" width=""64.5""y=""290.25""x=""662.75"" fill=""red""/></svg>","83","stim_present","test","red","middle","html-keyboard-response","194","131714","0.0-3.0-0.2-1.82","k70m","false"
"390","<svg height=""645"" width=""1390""><rect height=""64.5"" width=""64.5""y=""290.25""x=""662.75"" fill=""green""/></svg>","76","stim_present","test","green","middle","html-keyboard-response","196","132608","0.0-3.0-0.2-1.83","k70m","false"
"368","<svg height=""645"" width=""1390""><rect height=""64.5"" width=""64.5""y=""290.25""x=""662.75"" fill=""green""/></svg>","76","stim_present","test","green","middle","html-keyboard-response","198","133480","0.0-3.0-0.2-1.84","k70m","false"
"439.9999999999709","<svg height=""645"" width=""1390""><rect height=""64.5"" width=""64.5""y=""290.25""x=""347.5"" fill=""green""/></svg>","83","stim_present","test","green","left","html-keyboard-response","200","134424","0.0-3.0-0.2-1.85","k70m","true"
"407","<svg height=""645"" width=""1390""><rect height=""64.5"" width=""64.5""y=""290.25""x=""662.75"" fill=""red""/></svg>","83","stim_present","test","red","middle","html-keyboard-response","202","135335","0.0-3.0-0.2-1.86","k70m","false"
"396","<svg height=""645"" width=""1390""><rect height=""64.5"" width=""64.5""y=""290.25""x=""1042.5"" fill=""red""/></svg>","83","stim_present","test","red","right","html-keyboard-response","204","136235","0.0-3.0-0.2-1.87","k70m","false"
"336","<svg height=""645"" width=""1390""><rect height=""64.5"" width=""64.5""y=""290.25""x=""347.5"" fill=""red""/></svg>","83","stim_present","test","red","left","html-keyboard-response","206","137075","0.0-3.0-0.2-1.88","k70m","false"
"378","<svg height=""645"" width=""1390""><rect height=""64.5"" width=""64.5""y=""290.25""x=""1042.5"" fill=""green""/></svg>","76","stim_present","test","green","right","html-keyboard-response","208","137958","0.0-3.0-0.2-1.89","k70m","false"
"353","<svg height=""645"" width=""1390""><rect height=""64.5"" width=""64.5""y=""290.25""x=""1042.5"" fill=""green""/></svg>","76","stim_present","test","green","right","html-keyboard-response","210","138816","0.0-3.0-0.2-1.90","k70m","false"
"384","<svg height=""645"" width=""1390""><rect height=""64.5"" width=""64.5""y=""290.25""x=""662.75"" fill=""red""/></svg>","83","stim_present","test","red","middle","html-keyboard-response","212","139705","0.0-3.0-0.2-1.91","k70m","false"
"347","<svg height=""645"" width=""1390""><rect height=""64.5"" width=""64.5""y=""290.25""x=""347.5"" fill=""green""/></svg>","83","stim_present","test","green","left","html-keyboard-response","214","140556","0.0-3.0-0.2-1.92","k70m","true"
"419","<svg height=""645"" width=""1390""><rect height=""64.5"" width=""64.5""y=""290.25""x=""347.5"" fill=""red""/></svg>","83","stim_present","test","red","left","html-keyboard-response","216","141483","0.0-3.0-0.2-1.93","k70m","false"
"589","<svg height=""645"" width=""1390""><rect height=""64.5"" width=""64.5""y=""290.25""x=""1042.5"" fill=""red""/></svg>","83","stim_present","test","red","right","html-keyboard-response","218","142576","0.0-3.0-0.2-1.94","k70m","false"
"366","<svg height=""645"" width=""1390""><rect height=""64.5"" width=""64.5""y=""290.25""x=""662.75"" fill=""green""/></svg>","76","stim_present","test","green","middle","html-keyboard-response","220","143447","0.0-3.0-0.2-1.95","k70m","false"
"381","<svg height=""645"" width=""1390""><rect height=""64.5"" width=""64.5""y=""290.25""x=""347.5"" fill=""red""/></svg>","83","stim_present","test","red","left","html-keyboard-response","222","144332","0.0-3.0-0.2-1.96","k70m","false"
"362","<svg height=""645"" width=""1390""><rect height=""64.5"" width=""64.5""y=""290.25""x=""1042.5"" fill=""red""/></svg>","83","stim_present","test","red","right","html-keyboard-response","224","145200","0.0-3.0-0.2-1.97","k70m","false"
"584","<svg height=""645"" width=""1390""><rect height=""64.5"" width=""64.5""y=""290.25""x=""347.5"" fill=""green""/></svg>","76","stim_present","test","green","left","html-keyboard-response","226","146288","0.0-3.0-0.2-1.98","k70m","false"
"455.9999999999709","<svg height=""645"" width=""1390""><rect height=""64.5"" width=""64.5""y=""290.25""x=""662.75"" fill=""red""/></svg>","83","stim_present","test","red","middle","html-keyboard-response","228","147249","0.0-3.0-0.2-1.99","k70m","false"
"348","<svg height=""645"" width=""1390""><rect height=""64.5"" width=""64.5""y=""290.25""x=""1042.5"" fill=""green""/></svg>","83","stim_present","test","green","right","html-keyboard-response","230","148101","0.0-3.0-0.2-1.100","k70m","true"
"499","<svg height=""645"" width=""1390""><rect height=""64.5"" width=""64.5""y=""290.25""x=""662.75"" fill=""green""/></svg>","83","stim_present","test","green","middle","html-keyboard-response","232","149105","0.0-3.0-0.2-1.101","k70m","true"
"549","<svg height=""645"" width=""1390""><rect height=""64.5"" width=""64.5""y=""290.25""x=""662.75"" fill=""red""/></svg>","83","stim_present","test","red","middle","html-keyboard-response","234","150158","0.0-3.0-0.2-1.102","k70m","false"
"404.9999999999709","<svg height=""645"" width=""1390""><rect height=""64.5"" width=""64.5""y=""290.25""x=""1042.5"" fill=""green""/></svg>","76","stim_present","test","green","right","html-keyboard-response","236","151067","0.0-3.0-0.2-1.103","k70m","false"
"384","<svg height=""645"" width=""1390""><rect height=""64.5"" width=""64.5""y=""290.25""x=""347.5"" fill=""green""/></svg>","76","stim_present","test","green","left","html-keyboard-response","238","151955","0.0-3.0-0.2-1.104","k70m","false"
"430","<svg height=""645"" width=""1390""><rect height=""64.5"" width=""64.5""y=""290.25""x=""1042.5"" fill=""red""/></svg>","83","stim_present","test","red","right","html-keyboard-response","240","152889","0.0-3.0-0.2-1.105","k70m","false"
"375","<svg height=""645"" width=""1390""><rect height=""64.5"" width=""64.5""y=""290.25""x=""662.75"" fill=""green""/></svg>","83","stim_present","test","green","middle","html-keyboard-response","242","153767","0.0-3.0-0.2-1.106","k70m","true"
"535","<svg height=""645"" width=""1390""><rect height=""64.5"" width=""64.5""y=""290.25""x=""347.5"" fill=""red""/></svg>","83","stim_present","test","red","left","html-keyboard-response","244","154805","0.0-3.0-0.2-1.107","k70m","false"
"574","<svg height=""645"" width=""1390""><rect height=""64.5"" width=""64.5""y=""290.25""x=""347.5"" fill=""green""/></svg>","76","stim_present","test","green","left","html-keyboard-response","247","158326","0.0-3.0-0.3-1.108","k70m","false"
"394","<svg height=""645"" width=""1390""><rect height=""64.5"" width=""64.5""y=""290.25""x=""662.75"" fill=""green""/></svg>","76","stim_present","test","green","middle","html-keyboard-response","249","159226","0.0-3.0-0.3-1.109","k70m","false"
"404","<svg height=""645"" width=""1390""><rect height=""64.5"" width=""64.5""y=""290.25""x=""347.5"" fill=""red""/></svg>","83","stim_present","test","red","left","html-keyboard-response","251","160134","0.0-3.0-0.3-1.110","k70m","false"
"425","<svg height=""645"" width=""1390""><rect height=""64.5"" width=""64.5""y=""290.25""x=""1042.5"" fill=""red""/></svg>","83","stim_present","test","red","right","html-keyboard-response","253","161063","0.0-3.0-0.3-1.111","k70m","false"
"368","<svg height=""645"" width=""1390""><rect height=""64.5"" width=""64.5""y=""290.25""x=""1042.5"" fill=""green""/></svg>","76","stim_present","test","green","right","html-keyboard-response","255","161935","0.0-3.0-0.3-1.112","k70m","false"
"490.0000000000291","<svg height=""645"" width=""1390""><rect height=""64.5"" width=""64.5""y=""290.25""x=""662.75"" fill=""red""/></svg>","83","stim_present","test","red","middle","html-keyboard-response","257","162929","0.0-3.0-0.3-1.113","k70m","false"
"386","<svg height=""645"" width=""1390""><rect height=""64.5"" width=""64.5""y=""290.25""x=""662.75"" fill=""red""/></svg>","83","stim_present","test","red","middle","html-keyboard-response","259","163819","0.0-3.0-0.3-1.114","k70m","false"
"404","<svg height=""645"" width=""1390""><rect height=""64.5"" width=""64.5""y=""290.25""x=""662.75"" fill=""green""/></svg>","76","stim_present","test","green","middle","html-keyboard-response","261","164727","0.0-3.0-0.3-1.115","k70m","false"
"521","<svg height=""645"" width=""1390""><rect height=""64.5"" width=""64.5""y=""290.25""x=""347.5"" fill=""red""/></svg>","83","stim_present","test","red","left","html-keyboard-response","263","165752","0.0-3.0-0.3-1.116","k70m","false"
"405","<svg height=""645"" width=""1390""><rect height=""64.5"" width=""64.5""y=""290.25""x=""1042.5"" fill=""green""/></svg>","76","stim_present","test","green","right","html-keyboard-response","265","166661","0.0-3.0-0.3-1.117","k70m","false"
"393","<svg height=""645"" width=""1390""><rect height=""64.5"" width=""64.5""y=""290.25""x=""347.5"" fill=""green""/></svg>","76","stim_present","test","green","left","html-keyboard-response","267","167558","0.0-3.0-0.3-1.118","k70m","false"
"424","<svg height=""645"" width=""1390""><rect height=""64.5"" width=""64.5""y=""290.25""x=""1042.5"" fill=""red""/></svg>","83","stim_present","test","red","right","html-keyboard-response","269","168486","0.0-3.0-0.3-1.119","k70m","false"
"417","<svg height=""645"" width=""1390""><rect height=""64.5"" width=""64.5""y=""290.25""x=""1042.5"" fill=""red""/></svg>","83","stim_present","test","red","right","html-keyboard-response","271","169407","0.0-3.0-0.3-1.120","k70m","false"
"387.9999999999709","<svg height=""645"" width=""1390""><rect height=""64.5"" width=""64.5""y=""290.25""x=""662.75"" fill=""green""/></svg>","76","stim_present","test","green","middle","html-keyboard-response","273","170299","0.0-3.0-0.3-1.121","k70m","false"
"402","<svg height=""645"" width=""1390""><rect height=""64.5"" width=""64.5""y=""290.25""x=""662.75"" fill=""red""/></svg>","83","stim_present","test","red","middle","html-keyboard-response","275","171205","0.0-3.0-0.3-1.122","k70m","false"
"370","<svg height=""645"" width=""1390""><rect height=""64.5"" width=""64.5""y=""290.25""x=""347.5"" fill=""green""/></svg>","83","stim_present","test","green","left","html-keyboard-response","277","172079","0.0-3.0-0.3-1.123","k70m","true"
"466","<svg height=""645"" width=""1390""><rect height=""64.5"" width=""64.5""y=""290.25""x=""347.5"" fill=""red""/></svg>","83","stim_present","test","red","left","html-keyboard-response","279","173049","0.0-3.0-0.3-1.124","k70m","false"
"444.0000000000291","<svg height=""645"" width=""1390""><rect height=""64.5"" width=""64.5""y=""290.25""x=""1042.5"" fill=""green""/></svg>","76","stim_present","test","green","right","html-keyboard-response","281","174000","0.0-3.0-0.3-1.125","k70m","false"
"421","<svg height=""645"" width=""1390""><rect height=""64.5"" width=""64.5""y=""290.25""x=""347.5"" fill=""red""/></svg>","83","stim_present","test","red","left","html-keyboard-response","283","174925","0.0-3.0-0.3-1.126","k70m","false"
"381","<svg height=""645"" width=""1390""><rect height=""64.5"" width=""64.5""y=""290.25""x=""1042.5"" fill=""green""/></svg>","76","stim_present","test","green","right","html-keyboard-response","285","175810","0.0-3.0-0.3-1.127","k70m","false"
"391","<svg height=""645"" width=""1390""><rect height=""64.5"" width=""64.5""y=""290.25""x=""662.75"" fill=""green""/></svg>","76","stim_present","test","green","middle","html-keyboard-response","287","176705","0.0-3.0-0.3-1.128","k70m","false"
"389","<svg height=""645"" width=""1390""><rect height=""64.5"" width=""64.5""y=""290.25""x=""347.5"" fill=""green""/></svg>","76","stim_present","test","green","left","html-keyboard-response","289","177598","0.0-3.0-0.3-1.129","k70m","false"
"433","<svg height=""645"" width=""1390""><rect height=""64.5"" width=""64.5""y=""290.25""x=""662.75"" fill=""red""/></svg>","83","stim_present","test","red","middle","html-keyboard-response","291","178535","0.0-3.0-0.3-1.130","k70m","false"
"475","<svg height=""645"" width=""1390""><rect height=""64.5"" width=""64.5""y=""290.25""x=""1042.5"" fill=""red""/></svg>","83","stim_present","test","red","right","html-keyboard-response","293","179514","0.0-3.0-0.3-1.131","k70m","false"
"400.9999999999709","<svg height=""645"" width=""1390""><rect height=""64.5"" width=""64.5""y=""290.25""x=""662.75"" fill=""red""/></svg>","83","stim_present","test","red","middle","html-keyboard-response","295","180419","0.0-3.0-0.3-1.132","k70m","false"
"402.9999999999709","<svg height=""645"" width=""1390""><rect height=""64.5"" width=""64.5""y=""290.25""x=""1042.5"" fill=""green""/></svg>","76","stim_present","test","green","right","html-keyboard-response","297","181326","0.0-3.0-0.3-1.133","k70m","false"
"449","<svg height=""645"" width=""1390""><rect height=""64.5"" width=""64.5""y=""290.25""x=""1042.5"" fill=""red""/></svg>","83","stim_present","test","red","right","html-keyboard-response","299","182279","0.0-3.0-0.3-1.134","k70m","false"
"336.0000000000291","<svg height=""645"" width=""1390""><rect height=""64.5"" width=""64.5""y=""290.25""x=""662.75"" fill=""green""/></svg>","76","stim_present","test","green","middle","html-keyboard-response","301","183119","0.0-3.0-0.3-1.135","k70m","false"
"401.0000000000291","<svg height=""645"" width=""1390""><rect height=""64.5"" width=""64.5""y=""290.25""x=""347.5"" fill=""green""/></svg>","76","stim_present","test","green","left","html-keyboard-response","303","184024","0.0-3.0-0.3-1.136","k70m","false"
"418","<svg height=""645"" width=""1390""><rect height=""64.5"" width=""64.5""y=""290.25""x=""347.5"" fill=""red""/></svg>","83","stim_present","test","red","left","html-keyboard-response","305","184945","0.0-3.0-0.3-1.137","k70m","false"
"333","<svg height=""645"" width=""1390""><rect height=""64.5"" width=""64.5""y=""290.25""x=""1042.5"" fill=""green""/></svg>","76","stim_present","test","green","right","html-keyboard-response","307","185783","0.0-3.0-0.3-1.138","k70m","false"
"446","<svg height=""645"" width=""1390""><rect height=""64.5"" width=""64.5""y=""290.25""x=""1042.5"" fill=""red""/></svg>","83","stim_present","test","red","right","html-keyboard-response","309","186732","0.0-3.0-0.3-1.139","k70m","false"
"371","<svg height=""645"" width=""1390""><rect height=""64.5"" width=""64.5""y=""290.25""x=""347.5"" fill=""red""/></svg>","83","stim_present","test","red","left","html-keyboard-response","311","187607","0.0-3.0-0.3-1.140","k70m","false"
"397.0000000000291","<svg height=""645"" width=""1390""><rect height=""64.5"" width=""64.5""y=""290.25""x=""662.75"" fill=""red""/></svg>","83","stim_present","test","red","middle","html-keyboard-response","313","188511","0.0-3.0-0.3-1.141","k70m","false"
"589","<svg height=""645"" width=""1390""><rect height=""64.5"" width=""64.5""y=""290.25""x=""662.75"" fill=""green""/></svg>","76","stim_present","test","green","middle","html-keyboard-response","315","189604","0.0-3.0-0.3-1.142","k70m","false"
"530","<svg height=""645"" width=""1390""><rect height=""64.5"" width=""64.5""y=""290.25""x=""347.5"" fill=""green""/></svg>","76","stim_present","test","green","left","html-keyboard-response","317","190637","0.0-3.0-0.3-1.143","k70m","false"
