"rt","stimulus","key_press","type","part","color","position","trial_type","trial_index","time_elapsed","internal_node_id","subject","accuracy"
"643.2400000048801","<svg height=""560"" width=""1230""><rect height=""56"" width=""56""y=""252""x=""922.5"" fill=""green""/></svg>","83","stim_present","training","green","right","html-keyboard-response","3","26817","0.0-2.0-0.0-1.0","2tfv","true"
"5194.169999973383","<svg height=""560"" width=""1230""><rect height=""56"" width=""56""y=""252""x=""307.5"" fill=""red""/></svg>","76","stim_present","training","red","left","html-keyboard-response","5","32517","0.0-2.0-0.0-1.1","2tfv","true"
"658.1350000342354","<svg height=""560"" width=""1230""><rect height=""56"" width=""56""y=""252""x=""587"" fill=""red""/></svg>","76","stim_present","training","red","middle","html-keyboard-response","7","33680","0.0-2.0-0.0-1.2","2tfv","true"
"398.50000001024455","<svg height=""560"" width=""1230""><rect height=""56"" width=""56""y=""252""x=""922.5"" fill=""red""/></svg>","76","stim_present","training","red","right","html-keyboard-response","9","34580","0.0-2.0-0.0-1.3","2tfv","true"
"386.10000000335276","<svg height=""560"" width=""1230""><rect height=""56"" width=""56""y=""252""x=""587"" fill=""green""/></svg>","83","stim_present","training","green","middle","html-keyboard-response","11","35467","0.0-2.0-0.0-1.4","2tfv","true"
"369.57499996060506","<svg height=""560"" width=""1230""><rect height=""56"" width=""56""y=""252""x=""307.5"" fill=""green""/></svg>","83","stim_present","training","green","left","html-keyboard-response","13","36343","0.0-2.0-0.0-1.5","2tfv","true"
"318.15499998629093","<svg height=""560"" width=""1230""><rect height=""56"" width=""56""y=""252""x=""307.5"" fill=""green""/></svg>","83","stim_present","training","green","left","html-keyboard-response","15","37167","0.0-2.0-0.0-1.6","2tfv","true"
"427.6600000448525","<svg height=""560"" width=""1230""><rect height=""56"" width=""56""y=""252""x=""307.5"" fill=""red""/></svg>","76","stim_present","training","red","left","html-keyboard-response","17","38105","0.0-2.0-0.0-1.7","2tfv","true"
"410.62500001862645","<svg height=""560"" width=""1230""><rect height=""56"" width=""56""y=""252""x=""922.5"" fill=""green""/></svg>","83","stim_present","training","green","right","html-keyboard-response","19","39030","0.0-2.0-0.0-1.8","2tfv","true"
"359.5050000003539","<svg height=""560"" width=""1230""><rect height=""56"" width=""56""y=""252""x=""587"" fill=""green""/></svg>","83","stim_present","training","green","middle","html-keyboard-response","21","39905","0.0-2.0-0.0-1.9","2tfv","true"
"397.7049999521114","<svg height=""560"" width=""1230""><rect height=""56"" width=""56""y=""252""x=""922.5"" fill=""red""/></svg>","83","stim_present","training","red","right","html-keyboard-response","23","40805","0.0-2.0-0.0-1.10","2tfv","false"
"425.19999999785796","<svg height=""560"" width=""1230""><rect height=""56"" width=""56""y=""252""x=""587"" fill=""red""/></svg>","76","stim_present","training","red","middle","html-keyboard-response","25","41742","0.0-2.0-0.0-1.11","2tfv","true"
"398.8149999640882","<svg height=""560"" width=""1230""><rect height=""56"" width=""56""y=""252""x=""922.5"" fill=""green""/></svg>","83","stim_present","test","green","right","html-keyboard-response","28","60168","0.0-3.0-0.0-1.0","2tfv","true"
"290.1500000152737","<svg height=""560"" width=""1230""><rect height=""56"" width=""56""y=""252""x=""587"" fill=""green""/></svg>","83","stim_present","test","green","middle","html-keyboard-response","30","60968","0.0-3.0-0.0-1.1","2tfv","true"
"404.6099999686703","<svg height=""560"" width=""1230""><rect height=""56"" width=""56""y=""252""x=""587"" fill=""red""/></svg>","76","stim_present","test","red","middle","html-keyboard-response","32","61880","0.0-3.0-0.0-1.2","2tfv","true"
"371.515000006184","<svg height=""560"" width=""1230""><rect height=""56"" width=""56""y=""252""x=""307.5"" fill=""red""/></svg>","76","stim_present","test","red","left","html-keyboard-response","34","62755","0.0-3.0-0.0-1.3","2tfv","true"
"322.1900000353344","<svg height=""560"" width=""1230""><rect height=""56"" width=""56""y=""252""x=""922.5"" fill=""red""/></svg>","76","stim_present","test","red","right","html-keyboard-response","36","63593","0.0-3.0-0.0-1.4","2tfv","true"
"338.9700000407174","<svg height=""560"" width=""1230""><rect height=""56"" width=""56""y=""252""x=""307.5"" fill=""green""/></svg>","83","stim_present","test","green","left","html-keyboard-response","38","64443","0.0-3.0-0.0-1.5","2tfv","true"
"380.4749999544583","<svg height=""560"" width=""1230""><rect height=""56"" width=""56""y=""252""x=""922.5"" fill=""red""/></svg>","76","stim_present","test","red","right","html-keyboard-response","40","65330","0.0-3.0-0.0-1.6","2tfv","true"
"438.5599999804981","<svg height=""560"" width=""1230""><rect height=""56"" width=""56""y=""252""x=""922.5"" fill=""green""/></svg>","83","stim_present","test","green","right","html-keyboard-response","42","66280","0.0-3.0-0.0-1.7","2tfv","true"
"311.199999996461","<svg height=""560"" width=""1230""><rect height=""56"" width=""56""y=""252""x=""307.5"" fill=""green""/></svg>","83","stim_present","test","green","left","html-keyboard-response","44","67093","0.0-3.0-0.0-1.8","2tfv","true"
"389.2300000297837","<svg height=""560"" width=""1230""><rect height=""56"" width=""56""y=""252""x=""307.5"" fill=""red""/></svg>","76","stim_present","test","red","left","html-keyboard-response","46","67993","0.0-3.0-0.0-1.9","2tfv","true"
"426.6749999951571","<svg height=""560"" width=""1230""><rect height=""56"" width=""56""y=""252""x=""587"" fill=""green""/></svg>","83","stim_present","test","green","middle","html-keyboard-response","48","68930","0.0-3.0-0.0-1.10","2tfv","true"
"334.9299999536015","<svg height=""560"" width=""1230""><rect height=""56"" width=""56""y=""252""x=""587"" fill=""red""/></svg>","83","stim_present","test","red","middle","html-keyboard-response","50","69781","0.0-3.0-0.0-1.11","2tfv","false"
"613.4350000065751","<svg height=""560"" width=""1230""><rect height=""56"" width=""56""y=""252""x=""922.5"" fill=""green""/></svg>","83","stim_present","test","green","right","html-keyboard-response","52","70905","0.0-3.0-0.0-1.12","2tfv","true"
"335.1849999744445","<svg height=""560"" width=""1230""><rect height=""56"" width=""56""y=""252""x=""587"" fill=""green""/></svg>","83","stim_present","test","green","middle","html-keyboard-response","54","71743","0.0-3.0-0.0-1.13","2tfv","true"
"391.1499999812804","<svg height=""560"" width=""1230""><rect height=""56"" width=""56""y=""252""x=""922.5"" fill=""red""/></svg>","76","stim_present","test","red","right","html-keyboard-response","56","72643","0.0-3.0-0.0-1.14","2tfv","true"
"670.5850000143982","<svg height=""560"" width=""1230""><rect height=""56"" width=""56""y=""252""x=""307.5"" fill=""green""/></svg>","83","stim_present","test","green","left","html-keyboard-response","58","73830","0.0-3.0-0.0-1.15","2tfv","true"
"553.1750000081956","<svg height=""560"" width=""1230""><rect height=""56"" width=""56""y=""252""x=""587"" fill=""red""/></svg>","76","stim_present","test","red","middle","html-keyboard-response","60","74893","0.0-3.0-0.0-1.16","2tfv","true"
"310.21000002510846","<svg height=""560"" width=""1230""><rect height=""56"" width=""56""y=""252""x=""307.5"" fill=""red""/></svg>","83","stim_present","test","red","left","html-keyboard-response","62","75718","0.0-3.0-0.0-1.17","2tfv","false"
"410.56500002741814","<svg height=""560"" width=""1230""><rect height=""56"" width=""56""y=""252""x=""307.5"" fill=""green""/></svg>","83","stim_present","test","green","left","html-keyboard-response","64","76630","0.0-3.0-0.0-1.18","2tfv","true"
"398.63999997032806","<svg height=""560"" width=""1230""><rect height=""56"" width=""56""y=""252""x=""587"" fill=""red""/></svg>","76","stim_present","test","red","middle","html-keyboard-response","66","77530","0.0-3.0-0.0-1.19","2tfv","true"
"342.8899999707937","<svg height=""560"" width=""1230""><rect height=""56"" width=""56""y=""252""x=""587"" fill=""green""/></svg>","83","stim_present","test","green","middle","html-keyboard-response","68","78380","0.0-3.0-0.0-1.20","2tfv","true"
"339.57499999087304","<svg height=""560"" width=""1230""><rect height=""56"" width=""56""y=""252""x=""307.5"" fill=""red""/></svg>","76","stim_present","test","red","left","html-keyboard-response","70","79230","0.0-3.0-0.0-1.21","2tfv","true"
"335.4999999864958","<svg height=""560"" width=""1230""><rect height=""56"" width=""56""y=""252""x=""922.5"" fill=""red""/></svg>","76","stim_present","test","red","right","html-keyboard-response","72","80068","0.0-3.0-0.0-1.22","2tfv","true"
"508.67499999003485","<svg height=""560"" width=""1230""><rect height=""56"" width=""56""y=""252""x=""922.5"" fill=""green""/></svg>","83","stim_present","test","green","right","html-keyboard-response","74","81080","0.0-3.0-0.0-1.23","2tfv","true"
"318.4950000140816","<svg height=""560"" width=""1230""><rect height=""56"" width=""56""y=""252""x=""587"" fill=""green""/></svg>","83","stim_present","test","green","middle","html-keyboard-response","76","81905","0.0-3.0-0.0-1.24","2tfv","true"
"290.33499996876344","<svg height=""560"" width=""1230""><rect height=""56"" width=""56""y=""252""x=""307.5"" fill=""green""/></svg>","83","stim_present","test","green","left","html-keyboard-response","78","82705","0.0-3.0-0.0-1.25","2tfv","true"
"448.1699999887496","<svg height=""560"" width=""1230""><rect height=""56"" width=""56""y=""252""x=""922.5"" fill=""red""/></svg>","76","stim_present","test","red","right","html-keyboard-response","80","83668","0.0-3.0-0.0-1.26","2tfv","true"
"329.5899999793619","<svg height=""560"" width=""1230""><rect height=""56"" width=""56""y=""252""x=""587"" fill=""red""/></svg>","76","stim_present","test","red","middle","html-keyboard-response","82","84505","0.0-3.0-0.0-1.27","2tfv","true"
"287.7299999818206","<svg height=""560"" width=""1230""><rect height=""56"" width=""56""y=""252""x=""307.5"" fill=""red""/></svg>","83","stim_present","test","red","left","html-keyboard-response","84","85305","0.0-3.0-0.0-1.28","2tfv","false"
"721.1549999774434","<svg height=""560"" width=""1230""><rect height=""56"" width=""56""y=""252""x=""922.5"" fill=""green""/></svg>","83","stim_present","test","green","right","html-keyboard-response","86","86543","0.0-3.0-0.0-1.29","2tfv","true"
"572.0399999991059","<svg height=""560"" width=""1230""><rect height=""56"" width=""56""y=""252""x=""307.5"" fill=""red""/></svg>","76","stim_present","test","red","left","html-keyboard-response","88","87618","0.0-3.0-0.0-1.30","2tfv","true"
"383.69499996770173","<svg height=""560"" width=""1230""><rect height=""56"" width=""56""y=""252""x=""587"" fill=""green""/></svg>","76","stim_present","test","green","middle","html-keyboard-response","90","88505","0.0-3.0-0.0-1.31","2tfv","false"
"435.094999964349","<svg height=""560"" width=""1230""><rect height=""56"" width=""56""y=""252""x=""307.5"" fill=""green""/></svg>","76","stim_present","test","green","left","html-keyboard-response","92","89443","0.0-3.0-0.0-1.32","2tfv","false"
"622.414999990724","<svg height=""560"" width=""1230""><rect height=""56"" width=""56""y=""252""x=""922.5"" fill=""green""/></svg>","83","stim_present","test","green","right","html-keyboard-response","94","90568","0.0-3.0-0.0-1.33","2tfv","true"
"498.0650000507012","<svg height=""560"" width=""1230""><rect height=""56"" width=""56""y=""252""x=""587"" fill=""red""/></svg>","76","stim_present","test","red","middle","html-keyboard-response","96","91568","0.0-3.0-0.0-1.34","2tfv","true"
"383.7100000237115","<svg height=""560"" width=""1230""><rect height=""56"" width=""56""y=""252""x=""922.5"" fill=""red""/></svg>","76","stim_present","test","red","right","html-keyboard-response","98","92455","0.0-3.0-0.0-1.35","2tfv","true"
"488.75499999849126","<svg height=""560"" width=""1230""><rect height=""56"" width=""56""y=""252""x=""307.5"" fill=""green""/></svg>","83","stim_present","test","green","left","html-keyboard-response","101","105493","0.0-3.0-0.1-1.36","2tfv","true"
"446.76999998046085","<svg height=""560"" width=""1230""><rect height=""56"" width=""56""y=""252""x=""307.5"" fill=""red""/></svg>","76","stim_present","test","red","left","html-keyboard-response","103","106455","0.0-3.0-0.1-1.37","2tfv","true"
"366.58000003080815","<svg height=""560"" width=""1230""><rect height=""56"" width=""56""y=""252""x=""922.5"" fill=""red""/></svg>","76","stim_present","test","red","right","html-keyboard-response","105","107330","0.0-3.0-0.1-1.38","2tfv","true"
"428.0999999609776","<svg height=""560"" width=""1230""><rect height=""56"" width=""56""y=""252""x=""922.5"" fill=""green""/></svg>","83","stim_present","test","green","right","html-keyboard-response","107","108268","0.0-3.0-0.1-1.39","2tfv","true"
"315.17499999608845","<svg height=""560"" width=""1230""><rect height=""56"" width=""56""y=""252""x=""587"" fill=""green""/></svg>","83","stim_present","test","green","middle","html-keyboard-response","109","109093","0.0-3.0-0.1-1.40","2tfv","true"
"1318.1900000199676","<svg height=""560"" width=""1230""><rect height=""56"" width=""56""y=""252""x=""587"" fill=""red""/></svg>","76","stim_present","test","red","middle","html-keyboard-response","111","110918","0.0-3.0-0.1-1.41","2tfv","true"
"335.55999997770414","<svg height=""560"" width=""1230""><rect height=""56"" width=""56""y=""252""x=""307.5"" fill=""red""/></svg>","76","stim_present","test","red","left","html-keyboard-response","113","111755","0.0-3.0-0.1-1.42","2tfv","true"
"366.65500001981854","<svg height=""560"" width=""1230""><rect height=""56"" width=""56""y=""252""x=""307.5"" fill=""green""/></svg>","83","stim_present","test","green","left","html-keyboard-response","115","112630","0.0-3.0-0.1-1.43","2tfv","true"
"396.58000000054017","<svg height=""560"" width=""1230""><rect height=""56"" width=""56""y=""252""x=""922.5"" fill=""green""/></svg>","83","stim_present","test","green","right","html-keyboard-response","117","113530","0.0-3.0-0.1-1.44","2tfv","true"
"342.64000004623085","<svg height=""560"" width=""1230""><rect height=""56"" width=""56""y=""252""x=""587"" fill=""green""/></svg>","83","stim_present","test","green","middle","html-keyboard-response","119","114380","0.0-3.0-0.1-1.45","2tfv","true"
"373.8650000304915","<svg height=""560"" width=""1230""><rect height=""56"" width=""56""y=""252""x=""922.5"" fill=""red""/></svg>","76","stim_present","test","red","right","html-keyboard-response","121","115256","0.0-3.0-0.1-1.46","2tfv","true"
"306.67499999981374","<svg height=""560"" width=""1230""><rect height=""56"" width=""56""y=""252""x=""587"" fill=""red""/></svg>","76","stim_present","test","red","middle","html-keyboard-response","123","116068","0.0-3.0-0.1-1.47","2tfv","true"
"395.7300000474788","<svg height=""560"" width=""1230""><rect height=""56"" width=""56""y=""252""x=""922.5"" fill=""red""/></svg>","76","stim_present","test","red","right","html-keyboard-response","125","116968","0.0-3.0-0.1-1.48","2tfv","true"
"281.3650000025518","<svg height=""560"" width=""1230""><rect height=""56"" width=""56""y=""252""x=""587"" fill=""red""/></svg>","76","stim_present","test","red","middle","html-keyboard-response","127","117755","0.0-3.0-0.1-1.49","2tfv","true"
"317.4950000247918","<svg height=""560"" width=""1230""><rect height=""56"" width=""56""y=""252""x=""922.5"" fill=""green""/></svg>","83","stim_present","test","green","right","html-keyboard-response","129","118580","0.0-3.0-0.1-1.50","2tfv","true"
"319.4050000165589","<svg height=""560"" width=""1230""><rect height=""56"" width=""56""y=""252""x=""307.5"" fill=""green""/></svg>","83","stim_present","test","green","left","html-keyboard-response","131","119405","0.0-3.0-0.1-1.51","2tfv","true"
"380.95000002067536","<svg height=""560"" width=""1230""><rect height=""56"" width=""56""y=""252""x=""307.5"" fill=""red""/></svg>","76","stim_present","test","red","left","html-keyboard-response","133","120293","0.0-3.0-0.1-1.52","2tfv","true"
"405.57000000262633","<svg height=""560"" width=""1230""><rect height=""56"" width=""56""y=""252""x=""587"" fill=""green""/></svg>","83","stim_present","test","green","middle","html-keyboard-response","135","121205","0.0-3.0-0.1-1.53","2tfv","true"
"371.0449999780394","<svg height=""560"" width=""1230""><rect height=""56"" width=""56""y=""252""x=""587"" fill=""red""/></svg>","83","stim_present","test","red","middle","html-keyboard-response","137","122093","0.0-3.0-0.1-1.54","2tfv","false"
"443.1500000064261","<svg height=""560"" width=""1230""><rect height=""56"" width=""56""y=""252""x=""587"" fill=""green""/></svg>","83","stim_present","test","green","middle","html-keyboard-response","139","123043","0.0-3.0-0.1-1.55","2tfv","true"
"474.74499995587394","<svg height=""560"" width=""1230""><rect height=""56"" width=""56""y=""252""x=""307.5"" fill=""red""/></svg>","76","stim_present","test","red","left","html-keyboard-response","141","124030","0.0-3.0-0.1-1.56","2tfv","true"
"336.2449999549426","<svg height=""560"" width=""1230""><rect height=""56"" width=""56""y=""252""x=""307.5"" fill=""green""/></svg>","83","stim_present","test","green","left","html-keyboard-response","143","124880","0.0-3.0-0.1-1.57","2tfv","true"
"297.2450000233948","<svg height=""560"" width=""1230""><rect height=""56"" width=""56""y=""252""x=""922.5"" fill=""red""/></svg>","76","stim_present","test","red","right","html-keyboard-response","145","125681","0.0-3.0-0.1-1.58","2tfv","true"
"365.94499996863306","<svg height=""560"" width=""1230""><rect height=""56"" width=""56""y=""252""x=""922.5"" fill=""green""/></svg>","83","stim_present","test","green","right","html-keyboard-response","147","126556","0.0-3.0-0.1-1.59","2tfv","true"
"304.2600000044331","<svg height=""560"" width=""1230""><rect height=""56"" width=""56""y=""252""x=""922.5"" fill=""green""/></svg>","83","stim_present","test","green","right","html-keyboard-response","149","127368","0.0-3.0-0.1-1.60","2tfv","true"
"340.0699999765493","<svg height=""560"" width=""1230""><rect height=""56"" width=""56""y=""252""x=""922.5"" fill=""red""/></svg>","83","stim_present","test","red","right","html-keyboard-response","151","128218","0.0-3.0-0.1-1.61","2tfv","false"
"509.06999997096136","<svg height=""560"" width=""1230""><rect height=""56"" width=""56""y=""252""x=""307.5"" fill=""red""/></svg>","76","stim_present","test","red","left","html-keyboard-response","153","129231","0.0-3.0-0.1-1.62","2tfv","true"
"338.56500004185364","<svg height=""560"" width=""1230""><rect height=""56"" width=""56""y=""252""x=""587"" fill=""green""/></svg>","83","stim_present","test","green","middle","html-keyboard-response","155","130080","0.0-3.0-0.1-1.63","2tfv","true"
"330.1050000009127","<svg height=""560"" width=""1230""><rect height=""56"" width=""56""y=""252""x=""307.5"" fill=""green""/></svg>","83","stim_present","test","green","left","html-keyboard-response","157","130918","0.0-3.0-0.1-1.64","2tfv","true"
"387.4049999867566","<svg height=""560"" width=""1230""><rect height=""56"" width=""56""y=""252""x=""587"" fill=""red""/></svg>","76","stim_present","test","red","middle","html-keyboard-response","159","131818","0.0-3.0-0.1-1.65","2tfv","true"
"319.26499999826774","<svg height=""560"" width=""1230""><rect height=""56"" width=""56""y=""252""x=""587"" fill=""red""/></svg>","76","stim_present","test","red","middle","html-keyboard-response","161","132643","0.0-3.0-0.1-1.66","2tfv","true"
"428.70499996934086","<svg height=""560"" width=""1230""><rect height=""56"" width=""56""y=""252""x=""587"" fill=""green""/></svg>","83","stim_present","test","green","middle","html-keyboard-response","163","133580","0.0-3.0-0.1-1.67","2tfv","true"
"336.8999999947846","<svg height=""560"" width=""1230""><rect height=""56"" width=""56""y=""252""x=""307.5"" fill=""green""/></svg>","76","stim_present","test","green","left","html-keyboard-response","165","134430","0.0-3.0-0.1-1.68","2tfv","false"
"365.73999997926876","<svg height=""560"" width=""1230""><rect height=""56"" width=""56""y=""252""x=""307.5"" fill=""red""/></svg>","83","stim_present","test","red","left","html-keyboard-response","167","135305","0.0-3.0-0.1-1.69","2tfv","false"
"477.3000000277534","<svg height=""560"" width=""1230""><rect height=""56"" width=""56""y=""252""x=""922.5"" fill=""green""/></svg>","83","stim_present","test","green","right","html-keyboard-response","169","136293","0.0-3.0-0.1-1.70","2tfv","true"
"416.17499996209517","<svg height=""560"" width=""1230""><rect height=""56"" width=""56""y=""252""x=""922.5"" fill=""red""/></svg>","83","stim_present","test","red","right","html-keyboard-response","171","137218","0.0-3.0-0.1-1.71","2tfv","false"
"346.0149999591522","<svg height=""560"" width=""1230""><rect height=""56"" width=""56""y=""252""x=""587"" fill=""green""/></svg>","83","stim_present","test","green","middle","html-keyboard-response","174","150230","0.0-3.0-0.2-1.72","2tfv","true"
"469.44499999517575","<svg height=""560"" width=""1230""><rect height=""56"" width=""56""y=""252""x=""307.5"" fill=""red""/></svg>","76","stim_present","test","red","left","html-keyboard-response","176","151205","0.0-3.0-0.2-1.73","2tfv","true"
"398.13999994657934","<svg height=""560"" width=""1230""><rect height=""56"" width=""56""y=""252""x=""307.5"" fill=""green""/></svg>","83","stim_present","test","green","left","html-keyboard-response","178","152118","0.0-3.0-0.2-1.74","2tfv","true"
"352.70499996840954","<svg height=""560"" width=""1230""><rect height=""56"" width=""56""y=""252""x=""922.5"" fill=""red""/></svg>","76","stim_present","test","red","right","html-keyboard-response","180","152980","0.0-3.0-0.2-1.75","2tfv","true"
"292.69999999087304","<svg height=""560"" width=""1230""><rect height=""56"" width=""56""y=""252""x=""587"" fill=""red""/></svg>","76","stim_present","test","red","middle","html-keyboard-response","182","153780","0.0-3.0-0.2-1.76","2tfv","true"
"344.49000004678965","<svg height=""560"" width=""1230""><rect height=""56"" width=""56""y=""252""x=""922.5"" fill=""green""/></svg>","83","stim_present","test","green","right","html-keyboard-response","184","154630","0.0-3.0-0.2-1.77","2tfv","true"
"521.6999999829568","<svg height=""560"" width=""1230""><rect height=""56"" width=""56""y=""252""x=""922.5"" fill=""red""/></svg>","76","stim_present","test","red","right","html-keyboard-response","186","155668","0.0-3.0-0.2-1.78","2tfv","true"
"434.15500002447516","<svg height=""560"" width=""1230""><rect height=""56"" width=""56""y=""252""x=""587"" fill=""green""/></svg>","83","stim_present","test","green","middle","html-keyboard-response","188","156618","0.0-3.0-0.2-1.79","2tfv","true"
"358.719999960158","<svg height=""560"" width=""1230""><rect height=""56"" width=""56""y=""252""x=""922.5"" fill=""green""/></svg>","83","stim_present","test","green","right","html-keyboard-response","190","157480","0.0-3.0-0.2-1.80","2tfv","true"
"468.6750000109896","<svg height=""560"" width=""1230""><rect height=""56"" width=""56""y=""252""x=""307.5"" fill=""red""/></svg>","76","stim_present","test","red","left","html-keyboard-response","192","158455","0.0-3.0-0.2-1.81","2tfv","true"
"422.8500000317581","<svg height=""560"" width=""1230""><rect height=""56"" width=""56""y=""252""x=""307.5"" fill=""green""/></svg>","83","stim_present","test","green","left","html-keyboard-response","194","159381","0.0-3.0-0.2-1.82","2tfv","true"
"432.3699999949895","<svg height=""560"" width=""1230""><rect height=""56"" width=""56""y=""252""x=""587"" fill=""red""/></svg>","76","stim_present","test","red","middle","html-keyboard-response","196","160330","0.0-3.0-0.2-1.83","2tfv","true"
"405.22000001510605","<svg height=""560"" width=""1230""><rect height=""56"" width=""56""y=""252""x=""307.5"" fill=""green""/></svg>","83","stim_present","test","green","left","html-keyboard-response","198","161243","0.0-3.0-0.2-1.84","2tfv","true"
"345.0299999676645","<svg height=""560"" width=""1230""><rect height=""56"" width=""56""y=""252""x=""307.5"" fill=""red""/></svg>","83","stim_present","test","red","left","html-keyboard-response","200","162093","0.0-3.0-0.2-1.85","2tfv","false"
"487.2099999920465","<svg height=""560"" width=""1230""><rect height=""56"" width=""56""y=""252""x=""587"" fill=""red""/></svg>","76","stim_present","test","red","middle","html-keyboard-response","202","163093","0.0-3.0-0.2-1.86","2tfv","true"
"359.47999998461455","<svg height=""560"" width=""1230""><rect height=""56"" width=""56""y=""252""x=""922.5"" fill=""green""/></svg>","83","stim_present","test","green","right","html-keyboard-response","204","163955","0.0-3.0-0.2-1.87","2tfv","true"
"335.01500001875684","<svg height=""560"" width=""1230""><rect height=""56"" width=""56""y=""252""x=""922.5"" fill=""red""/></svg>","83","stim_present","test","red","right","html-keyboard-response","206","164793","0.0-3.0-0.2-1.88","2tfv","false"
"826.58499997342","<svg height=""560"" width=""1230""><rect height=""56"" width=""56""y=""252""x=""587"" fill=""green""/></svg>","83","stim_present","test","green","middle","html-keyboard-response","208","166130","0.0-3.0-0.2-1.89","2tfv","true"
"345.52499995334074","<svg height=""560"" width=""1230""><rect height=""56"" width=""56""y=""252""x=""587"" fill=""green""/></svg>","83","stim_present","test","green","middle","html-keyboard-response","210","166980","0.0-3.0-0.2-1.90","2tfv","true"
"363.5950000025332","<svg height=""560"" width=""1230""><rect height=""56"" width=""56""y=""252""x=""922.5"" fill=""red""/></svg>","76","stim_present","test","red","right","html-keyboard-response","212","167855","0.0-3.0-0.2-1.91","2tfv","true"
"503.1500000040978","<svg height=""560"" width=""1230""><rect height=""56"" width=""56""y=""252""x=""587"" fill=""red""/></svg>","76","stim_present","test","red","middle","html-keyboard-response","214","168868","0.0-3.0-0.2-1.92","2tfv","true"
"527.925000002142","<svg height=""560"" width=""1230""><rect height=""56"" width=""56""y=""252""x=""922.5"" fill=""green""/></svg>","83","stim_present","test","green","right","html-keyboard-response","216","169906","0.0-3.0-0.2-1.93","2tfv","true"
"356.03999998420477","<svg height=""560"" width=""1230""><rect height=""56"" width=""56""y=""252""x=""307.5"" fill=""green""/></svg>","83","stim_present","test","green","left","html-keyboard-response","218","170768","0.0-3.0-0.2-1.94","2tfv","true"
"373.06999997235835","<svg height=""560"" width=""1230""><rect height=""56"" width=""56""y=""252""x=""307.5"" fill=""red""/></svg>","83","stim_present","test","red","left","html-keyboard-response","220","171643","0.0-3.0-0.2-1.95","2tfv","false"
"503.72500001685694","<svg height=""560"" width=""1230""><rect height=""56"" width=""56""y=""252""x=""307.5"" fill=""green""/></svg>","76","stim_present","test","green","left","html-keyboard-response","222","172655","0.0-3.0-0.2-1.96","2tfv","false"
"552.1850000368431","<svg height=""560"" width=""1230""><rect height=""56"" width=""56""y=""252""x=""307.5"" fill=""red""/></svg>","76","stim_present","test","red","left","html-keyboard-response","224","173718","0.0-3.0-0.2-1.97","2tfv","true"
"448.6299999989569","<svg height=""560"" width=""1230""><rect height=""56"" width=""56""y=""252""x=""587"" fill=""green""/></svg>","83","stim_present","test","green","middle","html-keyboard-response","226","174680","0.0-3.0-0.2-1.98","2tfv","true"
"400.15499998116866","<svg height=""560"" width=""1230""><rect height=""56"" width=""56""y=""252""x=""587"" fill=""red""/></svg>","76","stim_present","test","red","middle","html-keyboard-response","228","175593","0.0-3.0-0.2-1.99","2tfv","true"
"334.6499999752268","<svg height=""560"" width=""1230""><rect height=""56"" width=""56""y=""252""x=""922.5"" fill=""green""/></svg>","83","stim_present","test","green","right","html-keyboard-response","230","176430","0.0-3.0-0.2-1.100","2tfv","true"
"480.18999997293577","<svg height=""560"" width=""1230""><rect height=""56"" width=""56""y=""252""x=""922.5"" fill=""red""/></svg>","76","stim_present","test","red","right","html-keyboard-response","232","177418","0.0-3.0-0.2-1.101","2tfv","true"
"473.14499999629334","<svg height=""560"" width=""1230""><rect height=""56"" width=""56""y=""252""x=""307.5"" fill=""red""/></svg>","76","stim_present","test","red","left","html-keyboard-response","234","178393","0.0-3.0-0.2-1.102","2tfv","true"
"410.05000000586733","<svg height=""560"" width=""1230""><rect height=""56"" width=""56""y=""252""x=""587"" fill=""green""/></svg>","83","stim_present","test","green","middle","html-keyboard-response","236","179318","0.0-3.0-0.2-1.103","2tfv","true"
"423.80500002764165","<svg height=""560"" width=""1230""><rect height=""56"" width=""56""y=""252""x=""922.5"" fill=""red""/></svg>","76","stim_present","test","red","right","html-keyboard-response","238","180255","0.0-3.0-0.2-1.104","2tfv","true"
"335.495000006631","<svg height=""560"" width=""1230""><rect height=""56"" width=""56""y=""252""x=""307.5"" fill=""green""/></svg>","83","stim_present","test","green","left","html-keyboard-response","240","181105","0.0-3.0-0.2-1.105","2tfv","true"
"383.5049999761395","<svg height=""560"" width=""1230""><rect height=""56"" width=""56""y=""252""x=""587"" fill=""red""/></svg>","76","stim_present","test","red","middle","html-keyboard-response","242","182005","0.0-3.0-0.2-1.106","2tfv","true"
"332.9399999929592","<svg height=""560"" width=""1230""><rect height=""56"" width=""56""y=""252""x=""922.5"" fill=""green""/></svg>","83","stim_present","test","green","right","html-keyboard-response","244","182842","0.0-3.0-0.2-1.107","2tfv","true"
"435.8300000312738","<svg height=""560"" width=""1230""><rect height=""56"" width=""56""y=""252""x=""307.5"" fill=""red""/></svg>","76","stim_present","test","red","left","html-keyboard-response","247","191417","0.0-3.0-0.3-1.108","2tfv","true"
"306.4499999745749","<svg height=""560"" width=""1230""><rect height=""56"" width=""56""y=""252""x=""587"" fill=""red""/></svg>","76","stim_present","test","red","middle","html-keyboard-response","249","192230","0.0-3.0-0.3-1.109","2tfv","true"
"443.80499998806044","<svg height=""560"" width=""1230""><rect height=""56"" width=""56""y=""252""x=""307.5"" fill=""green""/></svg>","83","stim_present","test","green","left","html-keyboard-response","251","193180","0.0-3.0-0.3-1.110","2tfv","true"
"338.564999983646","<svg height=""560"" width=""1230""><rect height=""56"" width=""56""y=""252""x=""587"" fill=""green""/></svg>","83","stim_present","test","green","middle","html-keyboard-response","253","194030","0.0-3.0-0.3-1.111","2tfv","true"
"394.7099999641068","<svg height=""560"" width=""1230""><rect height=""56"" width=""56""y=""252""x=""922.5"" fill=""red""/></svg>","76","stim_present","test","red","right","html-keyboard-response","255","194930","0.0-3.0-0.3-1.112","2tfv","true"
"349.2050000349991","<svg height=""560"" width=""1230""><rect height=""56"" width=""56""y=""252""x=""922.5"" fill=""green""/></svg>","76","stim_present","test","green","right","html-keyboard-response","257","195792","0.0-3.0-0.3-1.113","2tfv","false"
"426.50500003946945","<svg height=""560"" width=""1230""><rect height=""56"" width=""56""y=""252""x=""922.5"" fill=""red""/></svg>","76","stim_present","test","red","right","html-keyboard-response","259","196730","0.0-3.0-0.3-1.114","2tfv","true"
"386.38499996159226","<svg height=""560"" width=""1230""><rect height=""56"" width=""56""y=""252""x=""587"" fill=""red""/></svg>","76","stim_present","test","red","middle","html-keyboard-response","261","197630","0.0-3.0-0.3-1.115","2tfv","true"
"347.14500000700355","<svg height=""560"" width=""1230""><rect height=""56"" width=""56""y=""252""x=""922.5"" fill=""green""/></svg>","83","stim_present","test","green","right","html-keyboard-response","263","198492","0.0-3.0-0.3-1.116","2tfv","true"
"360.1550000021234","<svg height=""560"" width=""1230""><rect height=""56"" width=""56""y=""252""x=""307.5"" fill=""red""/></svg>","83","stim_present","test","red","left","html-keyboard-response","265","199367","0.0-3.0-0.3-1.117","2tfv","false"
"484.180000028573","<svg height=""560"" width=""1230""><rect height=""56"" width=""56""y=""252""x=""587"" fill=""green""/></svg>","83","stim_present","test","green","middle","html-keyboard-response","267","200367","0.0-3.0-0.3-1.118","2tfv","true"
"382.15499999932945","<svg height=""560"" width=""1230""><rect height=""56"" width=""56""y=""252""x=""307.5"" fill=""green""/></svg>","83","stim_present","test","green","left","html-keyboard-response","269","201255","0.0-3.0-0.3-1.119","2tfv","true"
"368.6299999826588","<svg height=""560"" width=""1230""><rect height=""56"" width=""56""y=""252""x=""922.5"" fill=""green""/></svg>","83","stim_present","test","green","right","html-keyboard-response","271","202130","0.0-3.0-0.3-1.120","2tfv","true"
"394.7000000043772","<svg height=""560"" width=""1230""><rect height=""56"" width=""56""y=""252""x=""922.5"" fill=""red""/></svg>","76","stim_present","test","red","right","html-keyboard-response","273","203030","0.0-3.0-0.3-1.121","2tfv","true"
"541.6250000125729","<svg height=""560"" width=""1230""><rect height=""56"" width=""56""y=""252""x=""587"" fill=""red""/></svg>","76","stim_present","test","red","middle","html-keyboard-response","275","204080","0.0-3.0-0.3-1.122","2tfv","true"
"416.64000001037493","<svg height=""560"" width=""1230""><rect height=""56"" width=""56""y=""252""x=""587"" fill=""green""/></svg>","83","stim_present","test","green","middle","html-keyboard-response","277","205005","0.0-3.0-0.3-1.123","2tfv","true"
"394.6099999593571","<svg height=""560"" width=""1230""><rect height=""56"" width=""56""y=""252""x=""307.5"" fill=""green""/></svg>","83","stim_present","test","green","left","html-keyboard-response","279","205905","0.0-3.0-0.3-1.124","2tfv","true"
"447.1050000283867","<svg height=""560"" width=""1230""><rect height=""56"" width=""56""y=""252""x=""307.5"" fill=""red""/></svg>","76","stim_present","test","red","left","html-keyboard-response","281","206867","0.0-3.0-0.3-1.125","2tfv","true"
"345.22999997716397","<svg height=""560"" width=""1230""><rect height=""56"" width=""56""y=""252""x=""922.5"" fill=""red""/></svg>","76","stim_present","test","red","right","html-keyboard-response","283","207717","0.0-3.0-0.3-1.126","2tfv","true"
"341.1000000196509","<svg height=""560"" width=""1230""><rect height=""56"" width=""56""y=""252""x=""307.5"" fill=""green""/></svg>","83","stim_present","test","green","left","html-keyboard-response","285","208567","0.0-3.0-0.3-1.127","2tfv","true"
"522.5050000008196","<svg height=""560"" width=""1230""><rect height=""56"" width=""56""y=""252""x=""587"" fill=""red""/></svg>","76","stim_present","test","red","middle","html-keyboard-response","287","209605","0.0-3.0-0.3-1.128","2tfv","true"
"455.1550000323914","<svg height=""560"" width=""1230""><rect height=""56"" width=""56""y=""252""x=""587"" fill=""green""/></svg>","83","stim_present","test","green","middle","html-keyboard-response","289","210567","0.0-3.0-0.3-1.129","2tfv","true"
"427.04000003868714","<svg height=""560"" width=""1230""><rect height=""56"" width=""56""y=""252""x=""922.5"" fill=""green""/></svg>","83","stim_present","test","green","right","html-keyboard-response","291","211505","0.0-3.0-0.3-1.130","2tfv","true"
"424.07499998807907","<svg height=""560"" width=""1230""><rect height=""56"" width=""56""y=""252""x=""307.5"" fill=""red""/></svg>","76","stim_present","test","red","left","html-keyboard-response","293","212442","0.0-3.0-0.3-1.131","2tfv","true"
"504.625000001397","<svg height=""560"" width=""1230""><rect height=""56"" width=""56""y=""252""x=""922.5"" fill=""red""/></svg>","76","stim_present","test","red","right","html-keyboard-response","295","213455","0.0-3.0-0.3-1.132","2tfv","true"
"340.68999998271465","<svg height=""560"" width=""1230""><rect height=""56"" width=""56""y=""252""x=""307.5"" fill=""red""/></svg>","83","stim_present","test","red","left","html-keyboard-response","297","214305","0.0-3.0-0.3-1.133","2tfv","false"
"433.6199999670498","<svg height=""560"" width=""1230""><rect height=""56"" width=""56""y=""252""x=""587"" fill=""green""/></svg>","83","stim_present","test","green","middle","html-keyboard-response","299","215255","0.0-3.0-0.3-1.134","2tfv","true"
"357.18499997165054","<svg height=""560"" width=""1230""><rect height=""56"" width=""56""y=""252""x=""922.5"" fill=""green""/></svg>","83","stim_present","test","green","right","html-keyboard-response","301","216117","0.0-3.0-0.3-1.135","2tfv","true"
"358.20500005502254","<svg height=""560"" width=""1230""><rect height=""56"" width=""56""y=""252""x=""307.5"" fill=""green""/></svg>","83","stim_present","test","green","left","html-keyboard-response","303","216992","0.0-3.0-0.3-1.136","2tfv","true"
"323.54499999200925","<svg height=""560"" width=""1230""><rect height=""56"" width=""56""y=""252""x=""587"" fill=""red""/></svg>","76","stim_present","test","red","middle","html-keyboard-response","305","217830","0.0-3.0-0.3-1.137","2tfv","true"
"385.0850000162609","<svg height=""560"" width=""1230""><rect height=""56"" width=""56""y=""252""x=""307.5"" fill=""red""/></svg>","76","stim_present","test","red","left","html-keyboard-response","307","218717","0.0-3.0-0.3-1.138","2tfv","true"
"403.2850000075996","<svg height=""560"" width=""1230""><rect height=""56"" width=""56""y=""252""x=""307.5"" fill=""green""/></svg>","83","stim_present","test","green","left","html-keyboard-response","309","219630","0.0-3.0-0.3-1.139","2tfv","true"
"464.4550000084564","<svg height=""560"" width=""1230""><rect height=""56"" width=""56""y=""252""x=""587"" fill=""green""/></svg>","83","stim_present","test","green","middle","html-keyboard-response","311","220605","0.0-3.0-0.3-1.140","2tfv","true"
"378.1050000106916","<svg height=""560"" width=""1230""><rect height=""56"" width=""56""y=""252""x=""587"" fill=""red""/></svg>","76","stim_present","test","red","middle","html-keyboard-response","313","221492","0.0-3.0-0.3-1.141","2tfv","true"
"334.644999995362","<svg height=""560"" width=""1230""><rect height=""56"" width=""56""y=""252""x=""922.5"" fill=""red""/></svg>","83","stim_present","test","red","right","html-keyboard-response","315","222343","0.0-3.0-0.3-1.142","2tfv","false"
"440.04499999573454","<svg height=""560"" width=""1230""><rect height=""56"" width=""56""y=""252""x=""922.5"" fill=""green""/></svg>","83","stim_present","test","green","right","html-keyboard-response","317","223292","0.0-3.0-0.3-1.143","2tfv","true"
