"rt","stimulus","key_press","type","part","color","position","trial_type","trial_index","time_elapsed","internal_node_id","subject","accuracy"
"523.5950000060257","<svg height=""760"" width=""1246""><rect height=""76"" width=""76""y=""342""x=""934.5"" fill=""green""/></svg>","76","stim_present","training","green","right","html-keyboard-response","3","35961","0.0-2.0-0.0-1.0","3edp","false"
"385.5150000017602","<svg height=""760"" width=""1246""><rect height=""76"" width=""76""y=""342""x=""585"" fill=""red""/></svg>","83","stim_present","training","red","middle","html-keyboard-response","5","36851","0.0-2.0-0.0-1.1","3edp","false"
"735.9399999986636","<svg height=""760"" width=""1246""><rect height=""76"" width=""76""y=""342""x=""934.5"" fill=""red""/></svg>","76","stim_present","training","red","right","html-keyboard-response","7","38091","0.0-2.0-0.0-1.2","3edp","true"
"535.0800000014715","<svg height=""760"" width=""1246""><rect height=""76"" width=""76""y=""342""x=""585"" fill=""green""/></svg>","83","stim_present","training","green","middle","html-keyboard-response","9","39131","0.0-2.0-0.0-1.3","3edp","true"
"535.859999989043","<svg height=""760"" width=""1246""><rect height=""76"" width=""76""y=""342""x=""311.5"" fill=""red""/></svg>","83","stim_present","training","red","left","html-keyboard-response","11","40171","0.0-2.0-0.0-1.4","3edp","false"
"1386.51499999105","<svg height=""760"" width=""1246""><rect height=""76"" width=""76""y=""342""x=""311.5"" fill=""green""/></svg>","76","stim_present","training","green","left","html-keyboard-response","13","42061","0.0-2.0-0.0-1.5","3edp","false"
"1306.8449999991572","<svg height=""760"" width=""1246""><rect height=""76"" width=""76""y=""342""x=""311.5"" fill=""green""/></svg>","83","stim_present","training","green","left","html-keyboard-response","15","43871","0.0-2.0-0.0-1.6","3edp","true"
"846.7249999957858","<svg height=""760"" width=""1246""><rect height=""76"" width=""76""y=""342""x=""585"" fill=""green""/></svg>","76","stim_present","training","green","middle","html-keyboard-response","17","45223","0.0-2.0-0.0-1.7","3edp","false"
"664.5399999979418","<svg height=""760"" width=""1246""><rect height=""76"" width=""76""y=""342""x=""934.5"" fill=""red""/></svg>","76","stim_present","training","red","right","html-keyboard-response","19","46391","0.0-2.0-0.0-1.8","3edp","true"
"1385.9550000051968","<svg height=""760"" width=""1246""><rect height=""76"" width=""76""y=""342""x=""585"" fill=""red""/></svg>","76","stim_present","training","red","middle","html-keyboard-response","21","48281","0.0-2.0-0.0-1.9","3edp","true"
"687.7499999973224","<svg height=""760"" width=""1246""><rect height=""76"" width=""76""y=""342""x=""934.5"" fill=""green""/></svg>","83","stim_present","training","green","right","html-keyboard-response","23","49472","0.0-2.0-0.0-1.10","3edp","true"
"541.7799999995623","<svg height=""760"" width=""1246""><rect height=""76"" width=""76""y=""342""x=""311.5"" fill=""red""/></svg>","76","stim_present","training","red","left","html-keyboard-response","25","50519","0.0-2.0-0.0-1.11","3edp","true"
"464.9500000086846","<svg height=""760"" width=""1246""><rect height=""76"" width=""76""y=""342""x=""585"" fill=""red""/></svg>","76","stim_present","test","red","middle","html-keyboard-response","28","65991","0.0-3.0-0.0-1.0","3edp","true"
"396.77999999548774","<svg height=""760"" width=""1246""><rect height=""76"" width=""76""y=""342""x=""934.5"" fill=""red""/></svg>","76","stim_present","test","red","right","html-keyboard-response","30","66891","0.0-3.0-0.0-1.1","3edp","true"
"466.935000004014","<svg height=""760"" width=""1246""><rect height=""76"" width=""76""y=""342""x=""585"" fill=""green""/></svg>","83","stim_present","test","green","middle","html-keyboard-response","32","67861","0.0-3.0-0.0-1.2","3edp","true"
"446.2700000003679","<svg height=""760"" width=""1246""><rect height=""76"" width=""76""y=""342""x=""934.5"" fill=""green""/></svg>","83","stim_present","test","green","right","html-keyboard-response","34","68811","0.0-3.0-0.0-1.3","3edp","true"
"347.3050000029616","<svg height=""760"" width=""1246""><rect height=""76"" width=""76""y=""342""x=""311.5"" fill=""red""/></svg>","76","stim_present","test","red","left","html-keyboard-response","36","69662","0.0-3.0-0.0-1.4","3edp","true"
"506.3700000027893","<svg height=""760"" width=""1246""><rect height=""76"" width=""76""y=""342""x=""311.5"" fill=""green""/></svg>","76","stim_present","test","green","left","html-keyboard-response","38","70671","0.0-3.0-0.0-1.5","3edp","false"
"515.5999999988126","<svg height=""760"" width=""1246""><rect height=""76"" width=""76""y=""342""x=""934.5"" fill=""green""/></svg>","83","stim_present","test","green","right","html-keyboard-response","40","71691","0.0-3.0-0.0-1.6","3edp","true"
"496.18000000191387","<svg height=""760"" width=""1246""><rect height=""76"" width=""76""y=""342""x=""311.5"" fill=""red""/></svg>","76","stim_present","test","red","left","html-keyboard-response","42","72691","0.0-3.0-0.0-1.7","3edp","true"
"876.0499999916647","<svg height=""760"" width=""1246""><rect height=""76"" width=""76""y=""342""x=""585"" fill=""green""/></svg>","83","stim_present","test","green","middle","html-keyboard-response","44","74071","0.0-3.0-0.0-1.8","3edp","true"
"517.1400000108406","<svg height=""760"" width=""1246""><rect height=""76"" width=""76""y=""342""x=""934.5"" fill=""red""/></svg>","76","stim_present","test","red","right","html-keyboard-response","46","75093","0.0-3.0-0.0-1.9","3edp","true"
"534.7250000049826","<svg height=""760"" width=""1246""><rect height=""76"" width=""76""y=""342""x=""311.5"" fill=""green""/></svg>","83","stim_present","test","green","left","html-keyboard-response","48","76131","0.0-3.0-0.0-1.10","3edp","true"
"555.8049999963259","<svg height=""760"" width=""1246""><rect height=""76"" width=""76""y=""342""x=""585"" fill=""red""/></svg>","76","stim_present","test","red","middle","html-keyboard-response","50","77191","0.0-3.0-0.0-1.11","3edp","true"
"435.51000001025386","<svg height=""760"" width=""1246""><rect height=""76"" width=""76""y=""342""x=""585"" fill=""red""/></svg>","76","stim_present","test","red","middle","html-keyboard-response","52","78131","0.0-3.0-0.0-1.12","3edp","true"
"426.23499999172054","<svg height=""760"" width=""1246""><rect height=""76"" width=""76""y=""342""x=""311.5"" fill=""red""/></svg>","76","stim_present","test","red","left","html-keyboard-response","54","79062","0.0-3.0-0.0-1.13","3edp","true"
"426.69500000192784","<svg height=""760"" width=""1246""><rect height=""76"" width=""76""y=""342""x=""585"" fill=""green""/></svg>","83","stim_present","test","green","middle","html-keyboard-response","56","79991","0.0-3.0-0.0-1.14","3edp","true"
"466.25500000664033","<svg height=""760"" width=""1246""><rect height=""76"" width=""76""y=""342""x=""311.5"" fill=""green""/></svg>","76","stim_present","test","green","left","html-keyboard-response","58","80961","0.0-3.0-0.0-1.15","3edp","false"
"505.98999999056105","<svg height=""760"" width=""1246""><rect height=""76"" width=""76""y=""342""x=""934.5"" fill=""green""/></svg>","76","stim_present","test","green","right","html-keyboard-response","60","81972","0.0-3.0-0.0-1.16","3edp","false"
"615.845000007539","<svg height=""760"" width=""1246""><rect height=""76"" width=""76""y=""342""x=""934.5"" fill=""red""/></svg>","76","stim_present","test","red","right","html-keyboard-response","62","83091","0.0-3.0-0.0-1.17","3edp","true"
"546.2550000083866","<svg height=""760"" width=""1246""><rect height=""76"" width=""76""y=""342""x=""934.5"" fill=""green""/></svg>","83","stim_present","test","green","right","html-keyboard-response","64","84141","0.0-3.0-0.0-1.18","3edp","true"
"477.03000000910833","<svg height=""760"" width=""1246""><rect height=""76"" width=""76""y=""342""x=""311.5"" fill=""green""/></svg>","83","stim_present","test","green","left","html-keyboard-response","66","85122","0.0-3.0-0.0-1.19","3edp","true"
"501.52999999409076","<svg height=""760"" width=""1246""><rect height=""76"" width=""76""y=""342""x=""311.5"" fill=""red""/></svg>","76","stim_present","test","red","left","html-keyboard-response","68","86131","0.0-3.0-0.0-1.20","3edp","true"
"706.4400000090245","<svg height=""760"" width=""1246""><rect height=""76"" width=""76""y=""342""x=""585"" fill=""green""/></svg>","83","stim_present","test","green","middle","html-keyboard-response","70","87341","0.0-3.0-0.0-1.21","3edp","true"
"496.23499999870546","<svg height=""760"" width=""1246""><rect height=""76"" width=""76""y=""342""x=""585"" fill=""red""/></svg>","76","stim_present","test","red","middle","html-keyboard-response","72","88341","0.0-3.0-0.0-1.22","3edp","true"
"455.91499999864027","<svg height=""760"" width=""1246""><rect height=""76"" width=""76""y=""342""x=""934.5"" fill=""red""/></svg>","76","stim_present","test","red","right","html-keyboard-response","74","89302","0.0-3.0-0.0-1.23","3edp","true"
"445.80000000132713","<svg height=""760"" width=""1246""><rect height=""76"" width=""76""y=""342""x=""934.5"" fill=""green""/></svg>","83","stim_present","test","green","right","html-keyboard-response","76","90251","0.0-3.0-0.0-1.24","3edp","true"
"525.8000000030734","<svg height=""760"" width=""1246""><rect height=""76"" width=""76""y=""342""x=""585"" fill=""green""/></svg>","83","stim_present","test","green","middle","html-keyboard-response","78","91281","0.0-3.0-0.0-1.25","3edp","true"
"425.2649999980349","<svg height=""760"" width=""1246""><rect height=""76"" width=""76""y=""342""x=""311.5"" fill=""green""/></svg>","83","stim_present","test","green","left","html-keyboard-response","80","92211","0.0-3.0-0.0-1.26","3edp","true"
"456.39500000106636","<svg height=""760"" width=""1246""><rect height=""76"" width=""76""y=""342""x=""311.5"" fill=""red""/></svg>","76","stim_present","test","red","left","html-keyboard-response","82","93171","0.0-3.0-0.0-1.27","3edp","true"
"626.5049999929033","<svg height=""760"" width=""1246""><rect height=""76"" width=""76""y=""342""x=""585"" fill=""red""/></svg>","76","stim_present","test","red","middle","html-keyboard-response","84","94301","0.0-3.0-0.0-1.28","3edp","true"
"667.4550000025192","<svg height=""760"" width=""1246""><rect height=""76"" width=""76""y=""342""x=""934.5"" fill=""red""/></svg>","76","stim_present","test","red","right","html-keyboard-response","86","95473","0.0-3.0-0.0-1.29","3edp","true"
"374.60499998996966","<svg height=""760"" width=""1246""><rect height=""76"" width=""76""y=""342""x=""311.5"" fill=""red""/></svg>","76","stim_present","test","red","left","html-keyboard-response","88","96352","0.0-3.0-0.0-1.30","3edp","true"
"405.94500000588596","<svg height=""760"" width=""1246""><rect height=""76"" width=""76""y=""342""x=""585"" fill=""red""/></svg>","76","stim_present","test","red","middle","html-keyboard-response","90","97261","0.0-3.0-0.0-1.31","3edp","true"
"386.4249999896856","<svg height=""760"" width=""1246""><rect height=""76"" width=""76""y=""342""x=""934.5"" fill=""green""/></svg>","83","stim_present","test","green","right","html-keyboard-response","92","98151","0.0-3.0-0.0-1.32","3edp","true"
"575.8249999926193","<svg height=""760"" width=""1246""><rect height=""76"" width=""76""y=""342""x=""934.5"" fill=""red""/></svg>","76","stim_present","test","red","right","html-keyboard-response","94","99231","0.0-3.0-0.0-1.33","3edp","true"
"336.9500000117114","<svg height=""760"" width=""1246""><rect height=""76"" width=""76""y=""342""x=""311.5"" fill=""green""/></svg>","83","stim_present","test","green","left","html-keyboard-response","96","100072","0.0-3.0-0.0-1.34","3edp","true"
"505.7349999988219","<svg height=""760"" width=""1246""><rect height=""76"" width=""76""y=""342""x=""585"" fill=""green""/></svg>","83","stim_present","test","green","middle","html-keyboard-response","98","101081","0.0-3.0-0.0-1.35","3edp","true"
"816.4099999994505","<svg height=""760"" width=""1246""><rect height=""76"" width=""76""y=""342""x=""311.5"" fill=""green""/></svg>","83","stim_present","test","green","left","html-keyboard-response","101","106153","0.0-3.0-0.1-1.36","3edp","true"
"384.3250000063563","<svg height=""760"" width=""1246""><rect height=""76"" width=""76""y=""342""x=""934.5"" fill=""red""/></svg>","76","stim_present","test","red","right","html-keyboard-response","103","107041","0.0-3.0-0.1-1.37","3edp","true"
"535.8450000057928","<svg height=""760"" width=""1246""><rect height=""76"" width=""76""y=""342""x=""585"" fill=""red""/></svg>","76","stim_present","test","red","middle","html-keyboard-response","105","108082","0.0-3.0-0.1-1.38","3edp","true"
"461.9599999859929","<svg height=""760"" width=""1246""><rect height=""76"" width=""76""y=""342""x=""585"" fill=""green""/></svg>","83","stim_present","test","green","middle","html-keyboard-response","107","109051","0.0-3.0-0.1-1.39","3edp","true"
"316.84499999391846","<svg height=""760"" width=""1246""><rect height=""76"" width=""76""y=""342""x=""934.5"" fill=""green""/></svg>","76","stim_present","test","green","right","html-keyboard-response","109","109871","0.0-3.0-0.1-1.40","3edp","false"
"706.7950000055134","<svg height=""760"" width=""1246""><rect height=""76"" width=""76""y=""342""x=""311.5"" fill=""red""/></svg>","83","stim_present","test","red","left","html-keyboard-response","111","111081","0.0-3.0-0.1-1.41","3edp","false"
"915.3349999978673","<svg height=""760"" width=""1246""><rect height=""76"" width=""76""y=""342""x=""934.5"" fill=""green""/></svg>","83","stim_present","test","green","right","html-keyboard-response","113","112500","0.0-3.0-0.1-1.42","3edp","true"
"466.90500000840984","<svg height=""760"" width=""1246""><rect height=""76"" width=""76""y=""342""x=""585"" fill=""red""/></svg>","76","stim_present","test","red","middle","html-keyboard-response","115","113470","0.0-3.0-0.1-1.43","3edp","true"
"527.604999995674","<svg height=""760"" width=""1246""><rect height=""76"" width=""76""y=""342""x=""585"" fill=""green""/></svg>","83","stim_present","test","green","middle","html-keyboard-response","117","114500","0.0-3.0-0.1-1.44","3edp","true"
"527.7800000039861","<svg height=""760"" width=""1246""><rect height=""76"" width=""76""y=""342""x=""311.5"" fill=""red""/></svg>","76","stim_present","test","red","left","html-keyboard-response","119","115530","0.0-3.0-0.1-1.45","3edp","true"
"508.82000000274274","<svg height=""760"" width=""1246""><rect height=""76"" width=""76""y=""342""x=""934.5"" fill=""red""/></svg>","76","stim_present","test","red","right","html-keyboard-response","121","116541","0.0-3.0-0.1-1.46","3edp","true"
"357.05500000040047","<svg height=""760"" width=""1246""><rect height=""76"" width=""76""y=""342""x=""311.5"" fill=""green""/></svg>","83","stim_present","test","green","left","html-keyboard-response","123","117400","0.0-3.0-0.1-1.47","3edp","true"
"437.52999999560416","<svg height=""760"" width=""1246""><rect height=""76"" width=""76""y=""342""x=""311.5"" fill=""red""/></svg>","83","stim_present","test","red","left","html-keyboard-response","125","118340","0.0-3.0-0.1-1.48","3edp","false"
"467.2900000005029","<svg height=""760"" width=""1246""><rect height=""76"" width=""76""y=""342""x=""585"" fill=""red""/></svg>","76","stim_present","test","red","middle","html-keyboard-response","127","119310","0.0-3.0-0.1-1.49","3edp","true"
"447.24500000302214","<svg height=""760"" width=""1246""><rect height=""76"" width=""76""y=""342""x=""311.5"" fill=""green""/></svg>","83","stim_present","test","green","left","html-keyboard-response","129","120260","0.0-3.0-0.1-1.50","3edp","true"
"397.3450000048615","<svg height=""760"" width=""1246""><rect height=""76"" width=""76""y=""342""x=""934.5"" fill=""red""/></svg>","76","stim_present","test","red","right","html-keyboard-response","131","121160","0.0-3.0-0.1-1.51","3edp","true"
"475.51499999826774","<svg height=""760"" width=""1246""><rect height=""76"" width=""76""y=""342""x=""585"" fill=""green""/></svg>","83","stim_present","test","green","middle","html-keyboard-response","133","122139","0.0-3.0-0.1-1.52","3edp","true"
"476.58999999111984","<svg height=""760"" width=""1246""><rect height=""76"" width=""76""y=""342""x=""934.5"" fill=""green""/></svg>","83","stim_present","test","green","right","html-keyboard-response","135","123119","0.0-3.0-0.1-1.53","3edp","true"
"438.58000000182074","<svg height=""760"" width=""1246""><rect height=""76"" width=""76""y=""342""x=""311.5"" fill=""green""/></svg>","83","stim_present","test","green","left","html-keyboard-response","137","124059","0.0-3.0-0.1-1.54","3edp","true"
"349.70000000612345","<svg height=""760"" width=""1246""><rect height=""76"" width=""76""y=""342""x=""585"" fill=""red""/></svg>","76","stim_present","test","red","middle","html-keyboard-response","139","124912","0.0-3.0-0.1-1.55","3edp","true"
"495.12500000128057","<svg height=""760"" width=""1246""><rect height=""76"" width=""76""y=""342""x=""934.5"" fill=""green""/></svg>","83","stim_present","test","green","right","html-keyboard-response","141","125911","0.0-3.0-0.1-1.56","3edp","true"
"416.3750000006985","<svg height=""760"" width=""1246""><rect height=""76"" width=""76""y=""342""x=""311.5"" fill=""red""/></svg>","76","stim_present","test","red","left","html-keyboard-response","143","126831","0.0-3.0-0.1-1.57","3edp","true"
"474.7300000017276","<svg height=""760"" width=""1246""><rect height=""76"" width=""76""y=""342""x=""934.5"" fill=""red""/></svg>","83","stim_present","test","red","right","html-keyboard-response","145","127810","0.0-3.0-0.1-1.58","3edp","false"
"436.2649999966379","<svg height=""760"" width=""1246""><rect height=""76"" width=""76""y=""342""x=""585"" fill=""green""/></svg>","83","stim_present","test","green","middle","html-keyboard-response","147","128750","0.0-3.0-0.1-1.59","3edp","true"
"575.9349999862025","<svg height=""760"" width=""1246""><rect height=""76"" width=""76""y=""342""x=""311.5"" fill=""red""/></svg>","76","stim_present","test","red","left","html-keyboard-response","149","129830","0.0-3.0-0.1-1.60","3edp","true"
"665.6199999997625","<svg height=""760"" width=""1246""><rect height=""76"" width=""76""y=""342""x=""311.5"" fill=""green""/></svg>","83","stim_present","test","green","left","html-keyboard-response","151","131000","0.0-3.0-0.1-1.61","3edp","true"
"505.76500000897795","<svg height=""760"" width=""1246""><rect height=""76"" width=""76""y=""342""x=""585"" fill=""green""/></svg>","83","stim_present","test","green","middle","html-keyboard-response","153","132010","0.0-3.0-0.1-1.62","3edp","true"
"525.5800000013551","<svg height=""760"" width=""1246""><rect height=""76"" width=""76""y=""342""x=""934.5"" fill=""green""/></svg>","76","stim_present","test","green","right","html-keyboard-response","155","133040","0.0-3.0-0.1-1.63","3edp","false"
"506.8849999952363","<svg height=""760"" width=""1246""><rect height=""76"" width=""76""y=""342""x=""934.5"" fill=""red""/></svg>","76","stim_present","test","red","right","html-keyboard-response","157","134050","0.0-3.0-0.1-1.64","3edp","true"
"606.2349999992875","<svg height=""760"" width=""1246""><rect height=""76"" width=""76""y=""342""x=""585"" fill=""red""/></svg>","76","stim_present","test","red","middle","html-keyboard-response","159","135160","0.0-3.0-0.1-1.65","3edp","true"
"475.7149999932153","<svg height=""760"" width=""1246""><rect height=""76"" width=""76""y=""342""x=""585"" fill=""green""/></svg>","76","stim_present","test","green","middle","html-keyboard-response","161","136140","0.0-3.0-0.1-1.66","3edp","false"
"637.9000000015367","<svg height=""760"" width=""1246""><rect height=""76"" width=""76""y=""342""x=""311.5"" fill=""red""/></svg>","76","stim_present","test","red","left","html-keyboard-response","163","137281","0.0-3.0-0.1-1.67","3edp","true"
"645.5299999943236","<svg height=""760"" width=""1246""><rect height=""76"" width=""76""y=""342""x=""311.5"" fill=""green""/></svg>","76","stim_present","test","green","left","html-keyboard-response","165","138430","0.0-3.0-0.1-1.68","3edp","false"
"876.9850000098813","<svg height=""760"" width=""1246""><rect height=""76"" width=""76""y=""342""x=""934.5"" fill=""green""/></svg>","76","stim_present","test","green","right","html-keyboard-response","167","139810","0.0-3.0-0.1-1.69","3edp","false"
"515.4199999960838","<svg height=""760"" width=""1246""><rect height=""76"" width=""76""y=""342""x=""934.5"" fill=""red""/></svg>","83","stim_present","test","red","right","html-keyboard-response","169","140830","0.0-3.0-0.1-1.70","3edp","false"
"626.0999999940395","<svg height=""760"" width=""1246""><rect height=""76"" width=""76""y=""342""x=""585"" fill=""red""/></svg>","76","stim_present","test","red","middle","html-keyboard-response","171","141960","0.0-3.0-0.1-1.71","3edp","true"
"1176.7949999921257","<svg height=""760"" width=""1246""><rect height=""76"" width=""76""y=""342""x=""585"" fill=""red""/></svg>","76","stim_present","test","red","middle","html-keyboard-response","174","145070","0.0-3.0-0.2-1.72","3edp","true"
"515.1550000009593","<svg height=""760"" width=""1246""><rect height=""76"" width=""76""y=""342""x=""585"" fill=""green""/></svg>","83","stim_present","test","green","middle","html-keyboard-response","176","146090","0.0-3.0-0.2-1.73","3edp","true"
"445.46999999147374","<svg height=""760"" width=""1246""><rect height=""76"" width=""76""y=""342""x=""934.5"" fill=""green""/></svg>","76","stim_present","test","green","right","html-keyboard-response","178","147040","0.0-3.0-0.2-1.74","3edp","false"
"468.21999999519903","<svg height=""760"" width=""1246""><rect height=""76"" width=""76""y=""342""x=""934.5"" fill=""red""/></svg>","76","stim_present","test","red","right","html-keyboard-response","180","148011","0.0-3.0-0.2-1.75","3edp","true"
"484.84499999904074","<svg height=""760"" width=""1246""><rect height=""76"" width=""76""y=""342""x=""311.5"" fill=""green""/></svg>","83","stim_present","test","green","left","html-keyboard-response","182","149000","0.0-3.0-0.2-1.76","3edp","true"
"385.26000001002103","<svg height=""760"" width=""1246""><rect height=""76"" width=""76""y=""342""x=""311.5"" fill=""red""/></svg>","83","stim_present","test","red","left","html-keyboard-response","184","149891","0.0-3.0-0.2-1.77","3edp","false"
"473.62499999871943","<svg height=""760"" width=""1246""><rect height=""76"" width=""76""y=""342""x=""311.5"" fill=""green""/></svg>","76","stim_present","test","green","left","html-keyboard-response","186","150868","0.0-3.0-0.2-1.78","3edp","false"
"678.2949999906123","<svg height=""760"" width=""1246""><rect height=""76"" width=""76""y=""342""x=""585"" fill=""red""/></svg>","76","stim_present","test","red","middle","html-keyboard-response","188","152050","0.0-3.0-0.2-1.79","3edp","true"
"515.8300000039162","<svg height=""760"" width=""1246""><rect height=""76"" width=""76""y=""342""x=""585"" fill=""green""/></svg>","83","stim_present","test","green","middle","html-keyboard-response","190","153070","0.0-3.0-0.2-1.80","3edp","true"
"595.4650000057882","<svg height=""760"" width=""1246""><rect height=""76"" width=""76""y=""342""x=""311.5"" fill=""red""/></svg>","76","stim_present","test","red","left","html-keyboard-response","192","154170","0.0-3.0-0.2-1.81","3edp","true"
"605.1900000020396","<svg height=""760"" width=""1246""><rect height=""76"" width=""76""y=""342""x=""934.5"" fill=""red""/></svg>","76","stim_present","test","red","right","html-keyboard-response","194","155280","0.0-3.0-0.2-1.82","3edp","true"
"594.9550000077579","<svg height=""760"" width=""1246""><rect height=""76"" width=""76""y=""342""x=""934.5"" fill=""green""/></svg>","83","stim_present","test","green","right","html-keyboard-response","196","156380","0.0-3.0-0.2-1.83","3edp","true"
"456.24500000849366","<svg height=""760"" width=""1246""><rect height=""76"" width=""76""y=""342""x=""934.5"" fill=""green""/></svg>","83","stim_present","test","green","right","html-keyboard-response","198","157340","0.0-3.0-0.2-1.84","3edp","true"
"596.0599999962142","<svg height=""760"" width=""1246""><rect height=""76"" width=""76""y=""342""x=""585"" fill=""green""/></svg>","83","stim_present","test","green","middle","html-keyboard-response","200","158441","0.0-3.0-0.2-1.85","3edp","true"
"505.03000000026077","<svg height=""760"" width=""1246""><rect height=""76"" width=""76""y=""342""x=""311.5"" fill=""green""/></svg>","83","stim_present","test","green","left","html-keyboard-response","202","159450","0.0-3.0-0.2-1.86","3edp","true"
"526.1449999961769","<svg height=""760"" width=""1246""><rect height=""76"" width=""76""y=""342""x=""585"" fill=""red""/></svg>","76","stim_present","test","red","middle","html-keyboard-response","204","160480","0.0-3.0-0.2-1.87","3edp","true"
"776.7999999923632","<svg height=""760"" width=""1246""><rect height=""76"" width=""76""y=""342""x=""311.5"" fill=""red""/></svg>","76","stim_present","test","red","left","html-keyboard-response","206","161760","0.0-3.0-0.2-1.88","3edp","true"
"634.6749999938766","<svg height=""760"" width=""1246""><rect height=""76"" width=""76""y=""342""x=""934.5"" fill=""red""/></svg>","76","stim_present","test","red","right","html-keyboard-response","208","162899","0.0-3.0-0.2-1.89","3edp","true"
"498.5149999993155","<svg height=""760"" width=""1246""><rect height=""76"" width=""76""y=""342""x=""311.5"" fill=""red""/></svg>","76","stim_present","test","red","left","html-keyboard-response","210","163900","0.0-3.0-0.2-1.90","3edp","true"
"436.5899999975227","<svg height=""760"" width=""1246""><rect height=""76"" width=""76""y=""342""x=""934.5"" fill=""red""/></svg>","76","stim_present","test","red","right","html-keyboard-response","212","164840","0.0-3.0-0.2-1.91","3edp","true"
"455.0699999963399","<svg height=""760"" width=""1246""><rect height=""76"" width=""76""y=""342""x=""311.5"" fill=""green""/></svg>","83","stim_present","test","green","left","html-keyboard-response","214","165800","0.0-3.0-0.2-1.92","3edp","true"
"635.3249999956461","<svg height=""760"" width=""1246""><rect height=""76"" width=""76""y=""342""x=""934.5"" fill=""green""/></svg>","83","stim_present","test","green","right","html-keyboard-response","216","166941","0.0-3.0-0.2-1.93","3edp","true"
"505.0199999968754","<svg height=""760"" width=""1246""><rect height=""76"" width=""76""y=""342""x=""585"" fill=""red""/></svg>","76","stim_present","test","red","middle","html-keyboard-response","218","167950","0.0-3.0-0.2-1.94","3edp","true"
"507.58000000496395","<svg height=""760"" width=""1246""><rect height=""76"" width=""76""y=""342""x=""585"" fill=""green""/></svg>","83","stim_present","test","green","middle","html-keyboard-response","220","168961","0.0-3.0-0.2-1.95","3edp","true"
"455.0650000019232","<svg height=""760"" width=""1246""><rect height=""76"" width=""76""y=""342""x=""585"" fill=""red""/></svg>","76","stim_present","test","red","middle","html-keyboard-response","222","169920","0.0-3.0-0.2-1.96","3edp","true"
"455.7499999937136","<svg height=""760"" width=""1246""><rect height=""76"" width=""76""y=""342""x=""311.5"" fill=""green""/></svg>","83","stim_present","test","green","left","html-keyboard-response","224","170880","0.0-3.0-0.2-1.97","3edp","true"
"516.7050000018207","<svg height=""760"" width=""1246""><rect height=""76"" width=""76""y=""342""x=""585"" fill=""green""/></svg>","83","stim_present","test","green","middle","html-keyboard-response","226","171900","0.0-3.0-0.2-1.98","3edp","true"
"316.54499999422114","<svg height=""760"" width=""1246""><rect height=""76"" width=""76""y=""342""x=""934.5"" fill=""red""/></svg>","76","stim_present","test","red","right","html-keyboard-response","228","172720","0.0-3.0-0.2-1.99","3edp","true"
"485.32500000146683","<svg height=""760"" width=""1246""><rect height=""76"" width=""76""y=""342""x=""311.5"" fill=""red""/></svg>","76","stim_present","test","red","left","html-keyboard-response","230","173710","0.0-3.0-0.2-1.100","3edp","true"
"496.7000000033295","<svg height=""760"" width=""1246""><rect height=""76"" width=""76""y=""342""x=""934.5"" fill=""green""/></svg>","83","stim_present","test","green","right","html-keyboard-response","232","174710","0.0-3.0-0.2-1.101","3edp","true"
"386.1299999989569","<svg height=""760"" width=""1246""><rect height=""76"" width=""76""y=""342""x=""311.5"" fill=""green""/></svg>","83","stim_present","test","green","left","html-keyboard-response","234","175601","0.0-3.0-0.2-1.102","3edp","true"
"496.15500000072643","<svg height=""760"" width=""1246""><rect height=""76"" width=""76""y=""342""x=""311.5"" fill=""red""/></svg>","76","stim_present","test","red","left","html-keyboard-response","236","176600","0.0-3.0-0.2-1.103","3edp","true"
"425.3549999993993","<svg height=""760"" width=""1246""><rect height=""76"" width=""76""y=""342""x=""585"" fill=""green""/></svg>","83","stim_present","test","green","middle","html-keyboard-response","238","177529","0.0-3.0-0.2-1.104","3edp","true"
"476.68000000703614","<svg height=""760"" width=""1246""><rect height=""76"" width=""76""y=""342""x=""585"" fill=""red""/></svg>","76","stim_present","test","red","middle","html-keyboard-response","240","178510","0.0-3.0-0.2-1.105","3edp","true"
"547.4400000093738","<svg height=""760"" width=""1246""><rect height=""76"" width=""76""y=""342""x=""934.5"" fill=""green""/></svg>","83","stim_present","test","green","right","html-keyboard-response","242","179561","0.0-3.0-0.2-1.106","3edp","true"
"574.4399999966845","<svg height=""760"" width=""1246""><rect height=""76"" width=""76""y=""342""x=""934.5"" fill=""red""/></svg>","76","stim_present","test","red","right","html-keyboard-response","244","180640","0.0-3.0-0.2-1.107","3edp","true"
"561.520000002929","<svg height=""760"" width=""1246""><rect height=""76"" width=""76""y=""342""x=""311.5"" fill=""red""/></svg>","76","stim_present","test","red","left","html-keyboard-response","247","204989","0.0-3.0-0.3-1.108","3edp","true"
"485.54999999760184","<svg height=""760"" width=""1246""><rect height=""76"" width=""76""y=""342""x=""934.5"" fill=""green""/></svg>","83","stim_present","test","green","right","html-keyboard-response","249","205979","0.0-3.0-0.3-1.109","3edp","true"
"425.8350000018254","<svg height=""760"" width=""1246""><rect height=""76"" width=""76""y=""342""x=""934.5"" fill=""red""/></svg>","83","stim_present","test","red","right","html-keyboard-response","251","206908","0.0-3.0-0.3-1.110","3edp","false"
"646.5100000059465","<svg height=""760"" width=""1246""><rect height=""76"" width=""76""y=""342""x=""585"" fill=""red""/></svg>","76","stim_present","test","red","middle","html-keyboard-response","253","208059","0.0-3.0-0.3-1.111","3edp","true"
"587.0749999885447","<svg height=""760"" width=""1246""><rect height=""76"" width=""76""y=""342""x=""311.5"" fill=""green""/></svg>","83","stim_present","test","green","left","html-keyboard-response","255","209149","0.0-3.0-0.3-1.112","3edp","true"
"706.7150000075344","<svg height=""760"" width=""1246""><rect height=""76"" width=""76""y=""342""x=""585"" fill=""green""/></svg>","83","stim_present","test","green","middle","html-keyboard-response","257","210359","0.0-3.0-0.3-1.113","3edp","true"
"546.4900000079069","<svg height=""760"" width=""1246""><rect height=""76"" width=""76""y=""342""x=""311.5"" fill=""red""/></svg>","76","stim_present","test","red","left","html-keyboard-response","259","211409","0.0-3.0-0.3-1.114","3edp","true"
"687.4800000077812","<svg height=""760"" width=""1246""><rect height=""76"" width=""76""y=""342""x=""934.5"" fill=""green""/></svg>","83","stim_present","test","green","right","html-keyboard-response","261","212600","0.0-3.0-0.3-1.115","3edp","true"
"836.4049999945564","<svg height=""760"" width=""1246""><rect height=""76"" width=""76""y=""342""x=""585"" fill=""red""/></svg>","76","stim_present","test","red","middle","html-keyboard-response","263","213940","0.0-3.0-0.3-1.116","3edp","true"
"615.0049999996554","<svg height=""760"" width=""1246""><rect height=""76"" width=""76""y=""342""x=""934.5"" fill=""red""/></svg>","76","stim_present","test","red","right","html-keyboard-response","265","215059","0.0-3.0-0.3-1.117","3edp","true"
"525.8500000054482","<svg height=""760"" width=""1246""><rect height=""76"" width=""76""y=""342""x=""311.5"" fill=""green""/></svg>","83","stim_present","test","green","left","html-keyboard-response","267","216089","0.0-3.0-0.3-1.118","3edp","true"
"526.1800000007497","<svg height=""760"" width=""1246""><rect height=""76"" width=""76""y=""342""x=""585"" fill=""green""/></svg>","83","stim_present","test","green","middle","html-keyboard-response","269","217119","0.0-3.0-0.3-1.119","3edp","true"
"566.1499999987427","<svg height=""760"" width=""1246""><rect height=""76"" width=""76""y=""342""x=""934.5"" fill=""green""/></svg>","83","stim_present","test","green","right","html-keyboard-response","271","218189","0.0-3.0-0.3-1.120","3edp","true"
"636.1349999933736","<svg height=""760"" width=""1246""><rect height=""76"" width=""76""y=""342""x=""311.5"" fill=""green""/></svg>","83","stim_present","test","green","left","html-keyboard-response","273","219329","0.0-3.0-0.3-1.121","3edp","true"
"406.1399999918649","<svg height=""760"" width=""1246""><rect height=""76"" width=""76""y=""342""x=""585"" fill=""red""/></svg>","76","stim_present","test","red","middle","html-keyboard-response","275","220239","0.0-3.0-0.3-1.122","3edp","true"
"566.7049999901792","<svg height=""760"" width=""1246""><rect height=""76"" width=""76""y=""342""x=""585"" fill=""green""/></svg>","83","stim_present","test","green","middle","html-keyboard-response","277","221309","0.0-3.0-0.3-1.123","3edp","true"
"546.7350000108127","<svg height=""760"" width=""1246""><rect height=""76"" width=""76""y=""342""x=""311.5"" fill=""red""/></svg>","76","stim_present","test","red","left","html-keyboard-response","279","222359","0.0-3.0-0.3-1.124","3edp","true"
"716.3549999968382","<svg height=""760"" width=""1246""><rect height=""76"" width=""76""y=""342""x=""934.5"" fill=""red""/></svg>","76","stim_present","test","red","right","html-keyboard-response","281","223579","0.0-3.0-0.3-1.125","3edp","true"
"507.370000006631","<svg height=""760"" width=""1246""><rect height=""76"" width=""76""y=""342""x=""585"" fill=""green""/></svg>","83","stim_present","test","green","middle","html-keyboard-response","283","224590","0.0-3.0-0.3-1.126","3edp","true"
"464.4200000038836","<svg height=""760"" width=""1246""><rect height=""76"" width=""76""y=""342""x=""585"" fill=""red""/></svg>","76","stim_present","test","red","middle","html-keyboard-response","285","225559","0.0-3.0-0.3-1.127","3edp","true"
"525.5349999933969","<svg height=""760"" width=""1246""><rect height=""76"" width=""76""y=""342""x=""934.5"" fill=""green""/></svg>","83","stim_present","test","green","right","html-keyboard-response","287","226589","0.0-3.0-0.3-1.128","3edp","true"
"665.6499999953667","<svg height=""760"" width=""1246""><rect height=""76"" width=""76""y=""342""x=""934.5"" fill=""red""/></svg>","76","stim_present","test","red","right","html-keyboard-response","289","227759","0.0-3.0-0.3-1.129","3edp","true"
"535.9500000049593","<svg height=""760"" width=""1246""><rect height=""76"" width=""76""y=""342""x=""311.5"" fill=""green""/></svg>","83","stim_present","test","green","left","html-keyboard-response","291","228799","0.0-3.0-0.3-1.130","3edp","true"
"525.6749999971362","<svg height=""760"" width=""1246""><rect height=""76"" width=""76""y=""342""x=""311.5"" fill=""red""/></svg>","76","stim_present","test","red","left","html-keyboard-response","293","229829","0.0-3.0-0.3-1.131","3edp","true"
"474.90500001003966","<svg height=""760"" width=""1246""><rect height=""76"" width=""76""y=""342""x=""311.5"" fill=""green""/></svg>","83","stim_present","test","green","left","html-keyboard-response","295","230809","0.0-3.0-0.3-1.132","3edp","true"
"386.33999999728985","<svg height=""760"" width=""1246""><rect height=""76"" width=""76""y=""342""x=""934.5"" fill=""red""/></svg>","76","stim_present","test","red","right","html-keyboard-response","297","231699","0.0-3.0-0.3-1.133","3edp","true"
"466.68000001227483","<svg height=""760"" width=""1246""><rect height=""76"" width=""76""y=""342""x=""934.5"" fill=""green""/></svg>","76","stim_present","test","green","right","html-keyboard-response","299","232669","0.0-3.0-0.3-1.134","3edp","false"
"566.4050000050338","<svg height=""760"" width=""1246""><rect height=""76"" width=""76""y=""342""x=""585"" fill=""red""/></svg>","76","stim_present","test","red","middle","html-keyboard-response","301","233739","0.0-3.0-0.3-1.135","3edp","true"
"407.5299999967683","<svg height=""760"" width=""1246""><rect height=""76"" width=""76""y=""342""x=""311.5"" fill=""red""/></svg>","76","stim_present","test","red","left","html-keyboard-response","303","234650","0.0-3.0-0.3-1.136","3edp","true"
"464.3649999925401","<svg height=""760"" width=""1246""><rect height=""76"" width=""76""y=""342""x=""585"" fill=""green""/></svg>","83","stim_present","test","green","middle","html-keyboard-response","305","235617","0.0-3.0-0.3-1.137","3edp","true"
"598.4150000003865","<svg height=""760"" width=""1246""><rect height=""76"" width=""76""y=""342""x=""585"" fill=""red""/></svg>","76","stim_present","test","red","middle","html-keyboard-response","307","236719","0.0-3.0-0.3-1.138","3edp","true"
"482.0449999970151","<svg height=""760"" width=""1246""><rect height=""76"" width=""76""y=""342""x=""311.5"" fill=""red""/></svg>","76","stim_present","test","red","left","html-keyboard-response","309","237709","0.0-3.0-0.3-1.139","3edp","true"
"486.51499999687076","<svg height=""760"" width=""1246""><rect height=""76"" width=""76""y=""342""x=""585"" fill=""green""/></svg>","83","stim_present","test","green","middle","html-keyboard-response","311","238699","0.0-3.0-0.3-1.140","3edp","true"
"415.949999995064","<svg height=""760"" width=""1246""><rect height=""76"" width=""76""y=""342""x=""934.5"" fill=""red""/></svg>","76","stim_present","test","red","right","html-keyboard-response","313","239619","0.0-3.0-0.3-1.141","3edp","true"
"537.0449999900302","<svg height=""760"" width=""1246""><rect height=""76"" width=""76""y=""342""x=""934.5"" fill=""green""/></svg>","83","stim_present","test","green","right","html-keyboard-response","315","240660","0.0-3.0-0.3-1.142","3edp","true"
"405.1550000003772","<svg height=""760"" width=""1246""><rect height=""76"" width=""76""y=""342""x=""311.5"" fill=""green""/></svg>","76","stim_present","test","green","left","html-keyboard-response","317","241569","0.0-3.0-0.3-1.143","3edp","false"
