"rt","stimulus","key_press","type","part","color","position","trial_type","trial_index","time_elapsed","internal_node_id","subject","accuracy"
"569.2500000004657","<svg height=""704"" width=""1486""><rect height=""70.4"" width=""70.4""y=""316.8""x=""707.8"" fill=""red""/></svg>","76","stim_present","training","red","middle","html-keyboard-response","3","32366","0.0-2.0-0.0-1.0","27y9","true"
"435.7249999884516","<svg height=""704"" width=""1486""><rect height=""70.4"" width=""70.4""y=""316.8""x=""707.8"" fill=""green""/></svg>","83","stim_present","training","green","middle","html-keyboard-response","5","33319","0.0-2.0-0.0-1.1","27y9","true"
"411.5950000123121","<svg height=""704"" width=""1486""><rect height=""70.4"" width=""70.4""y=""316.8""x=""371.5"" fill=""green""/></svg>","83","stim_present","training","green","left","html-keyboard-response","7","34243","0.0-2.0-0.0-1.2","27y9","true"
"456.96999999927357","<svg height=""704"" width=""1486""><rect height=""70.4"" width=""70.4""y=""316.8""x=""1114.5"" fill=""green""/></svg>","83","stim_present","training","green","right","html-keyboard-response","9","35216","0.0-2.0-0.0-1.3","27y9","true"
"409.37499998835847","<svg height=""704"" width=""1486""><rect height=""70.4"" width=""70.4""y=""316.8""x=""1114.5"" fill=""red""/></svg>","76","stim_present","training","red","right","html-keyboard-response","11","36150","0.0-2.0-0.0-1.4","27y9","true"
"420.8700000308454","<svg height=""704"" width=""1486""><rect height=""70.4"" width=""70.4""y=""316.8""x=""371.5"" fill=""red""/></svg>","76","stim_present","training","red","left","html-keyboard-response","13","37087","0.0-2.0-0.0-1.5","27y9","true"
"460.0649999920279","<svg height=""704"" width=""1486""><rect height=""70.4"" width=""70.4""y=""316.8""x=""371.5"" fill=""green""/></svg>","76","stim_present","training","green","left","html-keyboard-response","15","38062","0.0-2.0-0.0-1.6","27y9","false"
"543.8449999783188","<svg height=""704"" width=""1486""><rect height=""70.4"" width=""70.4""y=""316.8""x=""371.5"" fill=""red""/></svg>","76","stim_present","training","red","left","html-keyboard-response","17","39128","0.0-2.0-0.0-1.7","27y9","true"
"516.5450000204146","<svg height=""704"" width=""1486""><rect height=""70.4"" width=""70.4""y=""316.8""x=""707.8"" fill=""green""/></svg>","83","stim_present","training","green","middle","html-keyboard-response","19","40148","0.0-2.0-0.0-1.8","27y9","true"
"486.95500002941117","<svg height=""704"" width=""1486""><rect height=""70.4"" width=""70.4""y=""316.8""x=""707.8"" fill=""red""/></svg>","76","stim_present","training","red","middle","html-keyboard-response","21","41144","0.0-2.0-0.0-1.9","27y9","true"
"444.06499998876825","<svg height=""704"" width=""1486""><rect height=""70.4"" width=""70.4""y=""316.8""x=""1114.5"" fill=""red""/></svg>","76","stim_present","training","red","right","html-keyboard-response","23","42096","0.0-2.0-0.0-1.10","27y9","true"
"432.7000000048429","<svg height=""704"" width=""1486""><rect height=""70.4"" width=""70.4""y=""316.8""x=""1114.5"" fill=""green""/></svg>","83","stim_present","training","green","right","html-keyboard-response","25","43041","0.0-2.0-0.0-1.11","27y9","true"
"687.7950000343844","<svg height=""704"" width=""1486""><rect height=""70.4"" width=""70.4""y=""316.8""x=""707.8"" fill=""red""/></svg>","76","stim_present","test","red","middle","html-keyboard-response","28","52529","0.0-3.0-0.0-1.0","27y9","true"
"454.0900000138208","<svg height=""704"" width=""1486""><rect height=""70.4"" width=""70.4""y=""316.8""x=""1114.5"" fill=""green""/></svg>","83","stim_present","test","green","right","html-keyboard-response","30","53494","0.0-3.0-0.0-1.1","27y9","true"
"425.7649999926798","<svg height=""704"" width=""1486""><rect height=""70.4"" width=""70.4""y=""316.8""x=""707.8"" fill=""green""/></svg>","83","stim_present","test","green","middle","html-keyboard-response","32","54430","0.0-3.0-0.0-1.2","27y9","true"
"437.78500001644716","<svg height=""704"" width=""1486""><rect height=""70.4"" width=""70.4""y=""316.8""x=""371.5"" fill=""red""/></svg>","76","stim_present","test","red","left","html-keyboard-response","34","55371","0.0-3.0-0.0-1.3","27y9","true"
"412.99500002060086","<svg height=""704"" width=""1486""><rect height=""70.4"" width=""70.4""y=""316.8""x=""371.5"" fill=""green""/></svg>","83","stim_present","test","green","left","html-keyboard-response","36","56291","0.0-3.0-0.0-1.4","27y9","true"
"397.8750000242144","<svg height=""704"" width=""1486""><rect height=""70.4"" width=""70.4""y=""316.8""x=""1114.5"" fill=""red""/></svg>","76","stim_present","test","red","right","html-keyboard-response","38","57211","0.0-3.0-0.0-1.5","27y9","true"
"499.2099999799393","<svg height=""704"" width=""1486""><rect height=""70.4"" width=""70.4""y=""316.8""x=""707.8"" fill=""green""/></svg>","83","stim_present","test","green","middle","html-keyboard-response","40","58223","0.0-3.0-0.0-1.6","27y9","true"
"476.9749999977648","<svg height=""704"" width=""1486""><rect height=""70.4"" width=""70.4""y=""316.8""x=""1114.5"" fill=""green""/></svg>","83","stim_present","test","green","right","html-keyboard-response","42","59213","0.0-3.0-0.0-1.7","27y9","true"
"493.3500000042841","<svg height=""704"" width=""1486""><rect height=""70.4"" width=""70.4""y=""316.8""x=""1114.5"" fill=""red""/></svg>","76","stim_present","test","red","right","html-keyboard-response","44","60220","0.0-3.0-0.0-1.8","27y9","true"
"520.7550000050105","<svg height=""704"" width=""1486""><rect height=""70.4"" width=""70.4""y=""316.8""x=""707.8"" fill=""red""/></svg>","76","stim_present","test","red","middle","html-keyboard-response","46","61250","0.0-3.0-0.0-1.9","27y9","true"
"673.3499999972992","<svg height=""704"" width=""1486""><rect height=""70.4"" width=""70.4""y=""316.8""x=""371.5"" fill=""green""/></svg>","83","stim_present","test","green","left","html-keyboard-response","48","62432","0.0-3.0-0.0-1.10","27y9","true"
"692.8099999786355","<svg height=""704"" width=""1486""><rect height=""70.4"" width=""70.4""y=""316.8""x=""371.5"" fill=""red""/></svg>","76","stim_present","test","red","left","html-keyboard-response","50","63634","0.0-3.0-0.0-1.11","27y9","true"
"398.22500001173466","<svg height=""704"" width=""1486""><rect height=""70.4"" width=""70.4""y=""316.8""x=""371.5"" fill=""red""/></svg>","76","stim_present","test","red","left","html-keyboard-response","52","64537","0.0-3.0-0.0-1.12","27y9","true"
"538.8599999714643","<svg height=""704"" width=""1486""><rect height=""70.4"" width=""70.4""y=""316.8""x=""707.8"" fill=""green""/></svg>","83","stim_present","test","green","middle","html-keyboard-response","54","65588","0.0-3.0-0.0-1.13","27y9","true"
"459.67000001110137","<svg height=""704"" width=""1486""><rect height=""70.4"" width=""70.4""y=""316.8""x=""707.8"" fill=""red""/></svg>","76","stim_present","test","red","middle","html-keyboard-response","56","66565","0.0-3.0-0.0-1.14","27y9","true"
"368.0150000145659","<svg height=""704"" width=""1486""><rect height=""70.4"" width=""70.4""y=""316.8""x=""1114.5"" fill=""green""/></svg>","83","stim_present","test","green","right","html-keyboard-response","58","67441","0.0-3.0-0.0-1.15","27y9","true"
"371.41500000143424","<svg height=""704"" width=""1486""><rect height=""70.4"" width=""70.4""y=""316.8""x=""371.5"" fill=""green""/></svg>","83","stim_present","test","green","left","html-keyboard-response","60","68316","0.0-3.0-0.0-1.16","27y9","true"
"357.30999999213964","<svg height=""704"" width=""1486""><rect height=""70.4"" width=""70.4""y=""316.8""x=""1114.5"" fill=""red""/></svg>","76","stim_present","test","red","right","html-keyboard-response","62","69181","0.0-3.0-0.0-1.17","27y9","true"
"512.540000025183","<svg height=""704"" width=""1486""><rect height=""70.4"" width=""70.4""y=""316.8""x=""1114.5"" fill=""green""/></svg>","83","stim_present","test","green","right","html-keyboard-response","64","70202","0.0-3.0-0.0-1.18","27y9","true"
"444.39499999862164","<svg height=""704"" width=""1486""><rect height=""70.4"" width=""70.4""y=""316.8""x=""707.8"" fill=""green""/></svg>","83","stim_present","test","green","middle","html-keyboard-response","66","71162","0.0-3.0-0.0-1.19","27y9","true"
"407.47999999439344","<svg height=""704"" width=""1486""><rect height=""70.4"" width=""70.4""y=""316.8""x=""371.5"" fill=""red""/></svg>","76","stim_present","test","red","left","html-keyboard-response","68","72090","0.0-3.0-0.0-1.20","27y9","true"
"565.1850000140257","<svg height=""704"" width=""1486""><rect height=""70.4"" width=""70.4""y=""316.8""x=""1114.5"" fill=""red""/></svg>","76","stim_present","test","red","right","html-keyboard-response","70","73170","0.0-3.0-0.0-1.21","27y9","true"
"379.7400000039488","<svg height=""704"" width=""1486""><rect height=""70.4"" width=""70.4""y=""316.8""x=""371.5"" fill=""green""/></svg>","83","stim_present","test","green","left","html-keyboard-response","72","74067","0.0-3.0-0.0-1.22","27y9","true"
"440.11999998474494","<svg height=""704"" width=""1486""><rect height=""70.4"" width=""70.4""y=""316.8""x=""707.8"" fill=""red""/></svg>","76","stim_present","test","red","middle","html-keyboard-response","74","75021","0.0-3.0-0.0-1.23","27y9","true"
"409.7300000139512","<svg height=""704"" width=""1486""><rect height=""70.4"" width=""70.4""y=""316.8""x=""707.8"" fill=""green""/></svg>","83","stim_present","test","green","middle","html-keyboard-response","76","75936","0.0-3.0-0.0-1.24","27y9","true"
"399.81999999145046","<svg height=""704"" width=""1486""><rect height=""70.4"" width=""70.4""y=""316.8""x=""1114.5"" fill=""red""/></svg>","76","stim_present","test","red","right","html-keyboard-response","78","76853","0.0-3.0-0.0-1.25","27y9","true"
"366.4149999967776","<svg height=""704"" width=""1486""><rect height=""70.4"" width=""70.4""y=""316.8""x=""371.5"" fill=""green""/></svg>","83","stim_present","test","green","left","html-keyboard-response","80","77734","0.0-3.0-0.0-1.26","27y9","true"
"571.2249999633059","<svg height=""704"" width=""1486""><rect height=""70.4"" width=""70.4""y=""316.8""x=""1114.5"" fill=""green""/></svg>","83","stim_present","test","green","right","html-keyboard-response","82","78815","0.0-3.0-0.0-1.27","27y9","true"
"378.629999991972","<svg height=""704"" width=""1486""><rect height=""70.4"" width=""70.4""y=""316.8""x=""707.8"" fill=""red""/></svg>","76","stim_present","test","red","middle","html-keyboard-response","84","79701","0.0-3.0-0.0-1.28","27y9","true"
"449.8100000200793","<svg height=""704"" width=""1486""><rect height=""70.4"" width=""70.4""y=""316.8""x=""371.5"" fill=""red""/></svg>","76","stim_present","test","red","left","html-keyboard-response","86","80662","0.0-3.0-0.0-1.29","27y9","true"
"458.9949999935925","<svg height=""704"" width=""1486""><rect height=""70.4"" width=""70.4""y=""316.8""x=""707.8"" fill=""green""/></svg>","83","stim_present","test","green","middle","html-keyboard-response","88","81631","0.0-3.0-0.0-1.30","27y9","true"
"508.2449999754317","<svg height=""704"" width=""1486""><rect height=""70.4"" width=""70.4""y=""316.8""x=""371.5"" fill=""green""/></svg>","83","stim_present","test","green","left","html-keyboard-response","90","82659","0.0-3.0-0.0-1.31","27y9","true"
"337.9850000492297","<svg height=""704"" width=""1486""><rect height=""70.4"" width=""70.4""y=""316.8""x=""1114.5"" fill=""green""/></svg>","76","stim_present","test","green","right","html-keyboard-response","92","83503","0.0-3.0-0.0-1.32","27y9","false"
"547.1100000431761","<svg height=""704"" width=""1486""><rect height=""70.4"" width=""70.4""y=""316.8""x=""707.8"" fill=""red""/></svg>","76","stim_present","test","red","middle","html-keyboard-response","94","84554","0.0-3.0-0.0-1.33","27y9","true"
"342.47499995399266","<svg height=""704"" width=""1486""><rect height=""70.4"" width=""70.4""y=""316.8""x=""1114.5"" fill=""red""/></svg>","76","stim_present","test","red","right","html-keyboard-response","96","85406","0.0-3.0-0.0-1.34","27y9","true"
"405.61000001616776","<svg height=""704"" width=""1486""><rect height=""70.4"" width=""70.4""y=""316.8""x=""371.5"" fill=""red""/></svg>","76","stim_present","test","red","left","html-keyboard-response","98","86330","0.0-3.0-0.0-1.35","27y9","true"
"390.1499999919906","<svg height=""704"" width=""1486""><rect height=""70.4"" width=""70.4""y=""316.8""x=""371.5"" fill=""green""/></svg>","83","stim_present","test","green","left","html-keyboard-response","101","196451","0.0-3.0-0.1-1.36","27y9","true"
"412.7100000041537","<svg height=""704"" width=""1486""><rect height=""70.4"" width=""70.4""y=""316.8""x=""1114.5"" fill=""green""/></svg>","83","stim_present","test","green","right","html-keyboard-response","103","197387","0.0-3.0-0.1-1.37","27y9","true"
"440.6000000308268","<svg height=""704"" width=""1486""><rect height=""70.4"" width=""70.4""y=""316.8""x=""371.5"" fill=""red""/></svg>","76","stim_present","test","red","left","html-keyboard-response","105","198336","0.0-3.0-0.1-1.38","27y9","true"
"425.9450000245124","<svg height=""704"" width=""1486""><rect height=""70.4"" width=""70.4""y=""316.8""x=""1114.5"" fill=""red""/></svg>","76","stim_present","test","red","right","html-keyboard-response","107","199277","0.0-3.0-0.1-1.39","27y9","true"
"357.55000001518056","<svg height=""704"" width=""1486""><rect height=""70.4"" width=""70.4""y=""316.8""x=""707.8"" fill=""red""/></svg>","76","stim_present","test","red","middle","html-keyboard-response","109","200144","0.0-3.0-0.1-1.40","27y9","true"
"395.20500000799075","<svg height=""704"" width=""1486""><rect height=""70.4"" width=""70.4""y=""316.8""x=""707.8"" fill=""green""/></svg>","83","stim_present","test","green","middle","html-keyboard-response","111","201048","0.0-3.0-0.1-1.41","27y9","true"
"478.9099999470636","<svg height=""704"" width=""1486""><rect height=""70.4"" width=""70.4""y=""316.8""x=""371.5"" fill=""red""/></svg>","76","stim_present","test","red","left","html-keyboard-response","113","202045","0.0-3.0-0.1-1.42","27y9","true"
"986.8099999730475","<svg height=""704"" width=""1486""><rect height=""70.4"" width=""70.4""y=""316.8""x=""1114.5"" fill=""red""/></svg>","76","stim_present","test","red","right","html-keyboard-response","115","203537","0.0-3.0-0.1-1.43","27y9","true"
"360.9699999797158","<svg height=""704"" width=""1486""><rect height=""70.4"" width=""70.4""y=""316.8""x=""371.5"" fill=""green""/></svg>","83","stim_present","test","green","left","html-keyboard-response","117","204413","0.0-3.0-0.1-1.44","27y9","true"
"466.2199999438599","<svg height=""704"" width=""1486""><rect height=""70.4"" width=""70.4""y=""316.8""x=""707.8"" fill=""green""/></svg>","83","stim_present","test","green","middle","html-keyboard-response","119","205394","0.0-3.0-0.1-1.45","27y9","true"
"494.42499998258427","<svg height=""704"" width=""1486""><rect height=""70.4"" width=""70.4""y=""316.8""x=""1114.5"" fill=""green""/></svg>","83","stim_present","test","green","right","html-keyboard-response","121","206391","0.0-3.0-0.1-1.46","27y9","true"
"407.4499999987893","<svg height=""704"" width=""1486""><rect height=""70.4"" width=""70.4""y=""316.8""x=""707.8"" fill=""red""/></svg>","76","stim_present","test","red","middle","html-keyboard-response","123","207311","0.0-3.0-0.1-1.47","27y9","true"
"383.41000000946224","<svg height=""704"" width=""1486""><rect height=""70.4"" width=""70.4""y=""316.8""x=""371.5"" fill=""red""/></svg>","76","stim_present","test","red","left","html-keyboard-response","125","208203","0.0-3.0-0.1-1.48","27y9","true"
"343.3599999989383","<svg height=""704"" width=""1486""><rect height=""70.4"" width=""70.4""y=""316.8""x=""1114.5"" fill=""red""/></svg>","76","stim_present","test","red","right","html-keyboard-response","127","209057","0.0-3.0-0.1-1.49","27y9","true"
"291.7050000396557","<svg height=""704"" width=""1486""><rect height=""70.4"" width=""70.4""y=""316.8""x=""371.5"" fill=""green""/></svg>","83","stim_present","test","green","left","html-keyboard-response","129","209863","0.0-3.0-0.1-1.50","27y9","true"
"406.0549999703653","<svg height=""704"" width=""1486""><rect height=""70.4"" width=""70.4""y=""316.8""x=""707.8"" fill=""red""/></svg>","76","stim_present","test","red","middle","html-keyboard-response","131","210783","0.0-3.0-0.1-1.51","27y9","true"
"385.93499996932223","<svg height=""704"" width=""1486""><rect height=""70.4"" width=""70.4""y=""316.8""x=""1114.5"" fill=""green""/></svg>","83","stim_present","test","green","right","html-keyboard-response","133","211675","0.0-3.0-0.1-1.52","27y9","true"
"378.1549999839626","<svg height=""704"" width=""1486""><rect height=""70.4"" width=""70.4""y=""316.8""x=""707.8"" fill=""green""/></svg>","83","stim_present","test","green","middle","html-keyboard-response","135","212559","0.0-3.0-0.1-1.53","27y9","true"
"491.3650000235066","<svg height=""704"" width=""1486""><rect height=""70.4"" width=""70.4""y=""316.8""x=""1114.5"" fill=""green""/></svg>","83","stim_present","test","green","right","html-keyboard-response","137","213557","0.0-3.0-0.1-1.54","27y9","true"
"571.5549999731593","<svg height=""704"" width=""1486""><rect height=""70.4"" width=""70.4""y=""316.8""x=""1114.5"" fill=""red""/></svg>","76","stim_present","test","red","right","html-keyboard-response","139","214638","0.0-3.0-0.1-1.55","27y9","true"
"447.4799999734387","<svg height=""704"" width=""1486""><rect height=""70.4"" width=""70.4""y=""316.8""x=""707.8"" fill=""red""/></svg>","76","stim_present","test","red","middle","html-keyboard-response","141","215598","0.0-3.0-0.1-1.56","27y9","true"
"411.2300000269897","<svg height=""704"" width=""1486""><rect height=""70.4"" width=""70.4""y=""316.8""x=""707.8"" fill=""green""/></svg>","83","stim_present","test","green","middle","html-keyboard-response","143","216526","0.0-3.0-0.1-1.57","27y9","true"
"485.3550000116229","<svg height=""704"" width=""1486""><rect height=""70.4"" width=""70.4""y=""316.8""x=""371.5"" fill=""green""/></svg>","83","stim_present","test","green","left","html-keyboard-response","145","217534","0.0-3.0-0.1-1.58","27y9","true"
"452.5950000388548","<svg height=""704"" width=""1486""><rect height=""70.4"" width=""70.4""y=""316.8""x=""371.5"" fill=""red""/></svg>","76","stim_present","test","red","left","html-keyboard-response","147","218497","0.0-3.0-0.1-1.59","27y9","true"
"390.4949999996461","<svg height=""704"" width=""1486""><rect height=""70.4"" width=""70.4""y=""316.8""x=""1114.5"" fill=""red""/></svg>","76","stim_present","test","red","right","html-keyboard-response","149","219398","0.0-3.0-0.1-1.60","27y9","true"
"425.65500002820045","<svg height=""704"" width=""1486""><rect height=""70.4"" width=""70.4""y=""316.8""x=""707.8"" fill=""green""/></svg>","83","stim_present","test","green","middle","html-keyboard-response","151","220339","0.0-3.0-0.1-1.61","27y9","true"
"403.7900000112131","<svg height=""704"" width=""1486""><rect height=""70.4"" width=""70.4""y=""316.8""x=""371.5"" fill=""green""/></svg>","83","stim_present","test","green","left","html-keyboard-response","153","221260","0.0-3.0-0.1-1.62","27y9","true"
"469.1599999787286","<svg height=""704"" width=""1486""><rect height=""70.4"" width=""70.4""y=""316.8""x=""1114.5"" fill=""green""/></svg>","83","stim_present","test","green","right","html-keyboard-response","155","222240","0.0-3.0-0.1-1.63","27y9","true"
"371.2350000278093","<svg height=""704"" width=""1486""><rect height=""70.4"" width=""70.4""y=""316.8""x=""371.5"" fill=""red""/></svg>","76","stim_present","test","red","left","html-keyboard-response","157","223115","0.0-3.0-0.1-1.64","27y9","true"
"377.184999990277","<svg height=""704"" width=""1486""><rect height=""70.4"" width=""70.4""y=""316.8""x=""707.8"" fill=""red""/></svg>","76","stim_present","test","red","middle","html-keyboard-response","159","224016","0.0-3.0-0.1-1.65","27y9","true"
"397.3499999847263","<svg height=""704"" width=""1486""><rect height=""70.4"" width=""70.4""y=""316.8""x=""1114.5"" fill=""green""/></svg>","83","stim_present","test","green","right","html-keyboard-response","161","224926","0.0-3.0-0.1-1.66","27y9","true"
"425.1599999843165","<svg height=""704"" width=""1486""><rect height=""70.4"" width=""70.4""y=""316.8""x=""371.5"" fill=""green""/></svg>","76","stim_present","test","green","left","html-keyboard-response","163","225867","0.0-3.0-0.1-1.67","27y9","false"
"556.7750000045635","<svg height=""704"" width=""1486""><rect height=""70.4"" width=""70.4""y=""316.8""x=""707.8"" fill=""green""/></svg>","83","stim_present","test","green","middle","html-keyboard-response","165","226929","0.0-3.0-0.1-1.68","27y9","true"
"532.6599999680184","<svg height=""704"" width=""1486""><rect height=""70.4"" width=""70.4""y=""316.8""x=""707.8"" fill=""red""/></svg>","76","stim_present","test","red","middle","html-keyboard-response","167","227975","0.0-3.0-0.1-1.69","27y9","true"
"465.20000003511086","<svg height=""704"" width=""1486""><rect height=""70.4"" width=""70.4""y=""316.8""x=""1114.5"" fill=""red""/></svg>","76","stim_present","test","red","right","html-keyboard-response","169","228956","0.0-3.0-0.1-1.70","27y9","true"
"396.5599999646656","<svg height=""704"" width=""1486""><rect height=""70.4"" width=""70.4""y=""316.8""x=""371.5"" fill=""red""/></svg>","76","stim_present","test","red","left","html-keyboard-response","171","229871","0.0-3.0-0.1-1.71","27y9","true"
"355.46499997144565","<svg height=""704"" width=""1486""><rect height=""70.4"" width=""70.4""y=""316.8""x=""371.5"" fill=""green""/></svg>","83","stim_present","test","green","left","html-keyboard-response","174","232332","0.0-3.0-0.2-1.72","27y9","true"
"388.5000000009313","<svg height=""704"" width=""1486""><rect height=""70.4"" width=""70.4""y=""316.8""x=""1114.5"" fill=""green""/></svg>","83","stim_present","test","green","right","html-keyboard-response","176","233225","0.0-3.0-0.2-1.73","27y9","true"
"379.38499997835606","<svg height=""704"" width=""1486""><rect height=""70.4"" width=""70.4""y=""316.8""x=""707.8"" fill=""red""/></svg>","76","stim_present","test","red","middle","html-keyboard-response","178","234119","0.0-3.0-0.2-1.74","27y9","true"
"424.88499998580664","<svg height=""704"" width=""1486""><rect height=""70.4"" width=""70.4""y=""316.8""x=""1114.5"" fill=""red""/></svg>","76","stim_present","test","red","right","html-keyboard-response","180","235050","0.0-3.0-0.2-1.75","27y9","true"
"408.8200000114739","<svg height=""704"" width=""1486""><rect height=""70.4"" width=""70.4""y=""316.8""x=""371.5"" fill=""red""/></svg>","76","stim_present","test","red","left","html-keyboard-response","182","235975","0.0-3.0-0.2-1.76","27y9","true"
"445.9999999962747","<svg height=""704"" width=""1486""><rect height=""70.4"" width=""70.4""y=""316.8""x=""707.8"" fill=""green""/></svg>","83","stim_present","test","green","middle","html-keyboard-response","184","236928","0.0-3.0-0.2-1.77","27y9","true"
"656.2699999776669","<svg height=""704"" width=""1486""><rect height=""70.4"" width=""70.4""y=""316.8""x=""1114.5"" fill=""red""/></svg>","76","stim_present","test","red","right","html-keyboard-response","186","238104","0.0-3.0-0.2-1.78","27y9","true"
"425.62499997438863","<svg height=""704"" width=""1486""><rect height=""70.4"" width=""70.4""y=""316.8""x=""1114.5"" fill=""green""/></svg>","83","stim_present","test","green","right","html-keyboard-response","188","239035","0.0-3.0-0.2-1.79","27y9","true"
"679.5300000230782","<svg height=""704"" width=""1486""><rect height=""70.4"" width=""70.4""y=""316.8""x=""371.5"" fill=""green""/></svg>","83","stim_present","test","green","left","html-keyboard-response","190","240230","0.0-3.0-0.2-1.80","27y9","true"
"445.415000023786","<svg height=""704"" width=""1486""><rect height=""70.4"" width=""70.4""y=""316.8""x=""371.5"" fill=""red""/></svg>","76","stim_present","test","red","left","html-keyboard-response","192","241185","0.0-3.0-0.2-1.81","27y9","true"
"353.53500000201166","<svg height=""704"" width=""1486""><rect height=""70.4"" width=""70.4""y=""316.8""x=""707.8"" fill=""red""/></svg>","76","stim_present","test","red","middle","html-keyboard-response","194","242057","0.0-3.0-0.2-1.82","27y9","true"
"523.7999999662861","<svg height=""704"" width=""1486""><rect height=""70.4"" width=""70.4""y=""316.8""x=""707.8"" fill=""green""/></svg>","83","stim_present","test","green","middle","html-keyboard-response","196","243099","0.0-3.0-0.2-1.83","27y9","true"
"414.79999996954575","<svg height=""704"" width=""1486""><rect height=""70.4"" width=""70.4""y=""316.8""x=""707.8"" fill=""red""/></svg>","76","stim_present","test","red","middle","html-keyboard-response","198","244029","0.0-3.0-0.2-1.84","27y9","true"
"546.7449999996461","<svg height=""704"" width=""1486""><rect height=""70.4"" width=""70.4""y=""316.8""x=""707.8"" fill=""green""/></svg>","83","stim_present","test","green","middle","html-keyboard-response","200","245095","0.0-3.0-0.2-1.85","27y9","true"
"1198.2549999956973","<svg height=""704"" width=""1486""><rect height=""70.4"" width=""70.4""y=""316.8""x=""1114.5"" fill=""green""/></svg>","83","stim_present","test","green","right","html-keyboard-response","202","246812","0.0-3.0-0.2-1.86","27y9","true"
"493.45000000903383","<svg height=""704"" width=""1486""><rect height=""70.4"" width=""70.4""y=""316.8""x=""371.5"" fill=""red""/></svg>","76","stim_present","test","red","left","html-keyboard-response","204","247816","0.0-3.0-0.2-1.87","27y9","true"
"424.5900000096299","<svg height=""704"" width=""1486""><rect height=""70.4"" width=""70.4""y=""316.8""x=""371.5"" fill=""green""/></svg>","83","stim_present","test","green","left","html-keyboard-response","206","248754","0.0-3.0-0.2-1.88","27y9","true"
"528.7100000423379","<svg height=""704"" width=""1486""><rect height=""70.4"" width=""70.4""y=""316.8""x=""1114.5"" fill=""red""/></svg>","76","stim_present","test","red","right","html-keyboard-response","208","249799","0.0-3.0-0.2-1.89","27y9","true"
"341.2300000200048","<svg height=""704"" width=""1486""><rect height=""70.4"" width=""70.4""y=""316.8""x=""1114.5"" fill=""red""/></svg>","76","stim_present","test","red","right","html-keyboard-response","210","250648","0.0-3.0-0.2-1.90","27y9","true"
"350.97500000847504","<svg height=""704"" width=""1486""><rect height=""70.4"" width=""70.4""y=""316.8""x=""1114.5"" fill=""green""/></svg>","76","stim_present","test","green","right","html-keyboard-response","212","251516","0.0-3.0-0.2-1.91","27y9","false"
"452.30499998433515","<svg height=""704"" width=""1486""><rect height=""70.4"" width=""70.4""y=""316.8""x=""371.5"" fill=""green""/></svg>","83","stim_present","test","green","left","html-keyboard-response","214","252491","0.0-3.0-0.2-1.92","27y9","true"
"666.239999991376","<svg height=""704"" width=""1486""><rect height=""70.4"" width=""70.4""y=""316.8""x=""371.5"" fill=""red""/></svg>","76","stim_present","test","red","left","html-keyboard-response","216","253665","0.0-3.0-0.2-1.93","27y9","true"
"435.56000001262873","<svg height=""704"" width=""1486""><rect height=""70.4"" width=""70.4""y=""316.8""x=""707.8"" fill=""red""/></svg>","76","stim_present","test","red","middle","html-keyboard-response","218","254608","0.0-3.0-0.2-1.94","27y9","true"
"565.1650000363588","<svg height=""704"" width=""1486""><rect height=""70.4"" width=""70.4""y=""316.8""x=""707.8"" fill=""green""/></svg>","83","stim_present","test","green","middle","html-keyboard-response","220","255675","0.0-3.0-0.2-1.95","27y9","true"
"648.0100000044331","<svg height=""704"" width=""1486""><rect height=""70.4"" width=""70.4""y=""316.8""x=""371.5"" fill=""red""/></svg>","76","stim_present","test","red","left","html-keyboard-response","222","256833","0.0-3.0-0.2-1.96","27y9","true"
"388.8300000107847","<svg height=""704"" width=""1486""><rect height=""70.4"" width=""70.4""y=""316.8""x=""1114.5"" fill=""green""/></svg>","83","stim_present","test","green","right","html-keyboard-response","224","257739","0.0-3.0-0.2-1.97","27y9","true"
"322.3850000067614","<svg height=""704"" width=""1486""><rect height=""70.4"" width=""70.4""y=""316.8""x=""371.5"" fill=""green""/></svg>","83","stim_present","test","green","left","html-keyboard-response","226","258573","0.0-3.0-0.2-1.98","27y9","true"
"369.0799999749288","<svg height=""704"" width=""1486""><rect height=""70.4"" width=""70.4""y=""316.8""x=""707.8"" fill=""red""/></svg>","76","stim_present","test","red","middle","html-keyboard-response","228","259456","0.0-3.0-0.2-1.99","27y9","true"
"471.40999999828637","<svg height=""704"" width=""1486""><rect height=""70.4"" width=""70.4""y=""316.8""x=""1114.5"" fill=""red""/></svg>","76","stim_present","test","red","right","html-keyboard-response","230","260437","0.0-3.0-0.2-1.100","27y9","true"
"415.2899999753572","<svg height=""704"" width=""1486""><rect height=""70.4"" width=""70.4""y=""316.8""x=""707.8"" fill=""green""/></svg>","83","stim_present","test","green","middle","html-keyboard-response","232","261360","0.0-3.0-0.2-1.101","27y9","true"
"496.9050000072457","<svg height=""704"" width=""1486""><rect height=""70.4"" width=""70.4""y=""316.8""x=""1114.5"" fill=""green""/></svg>","83","stim_present","test","green","right","html-keyboard-response","234","262362","0.0-3.0-0.2-1.102","27y9","true"
"410.0199999520555","<svg height=""704"" width=""1486""><rect height=""70.4"" width=""70.4""y=""316.8""x=""707.8"" fill=""red""/></svg>","76","stim_present","test","red","middle","html-keyboard-response","236","263276","0.0-3.0-0.2-1.103","27y9","true"
"366.1050000227988","<svg height=""704"" width=""1486""><rect height=""70.4"" width=""70.4""y=""316.8""x=""1114.5"" fill=""red""/></svg>","76","stim_present","test","red","right","html-keyboard-response","238","264158","0.0-3.0-0.2-1.104","27y9","true"
"349.820000003092","<svg height=""704"" width=""1486""><rect height=""70.4"" width=""70.4""y=""316.8""x=""371.5"" fill=""green""/></svg>","83","stim_present","test","green","left","html-keyboard-response","240","265019","0.0-3.0-0.2-1.105","27y9","true"
"431.0300000361167","<svg height=""704"" width=""1486""><rect height=""70.4"" width=""70.4""y=""316.8""x=""371.5"" fill=""red""/></svg>","76","stim_present","test","red","left","html-keyboard-response","242","265956","0.0-3.0-0.2-1.106","27y9","true"
"406.74999996554106","<svg height=""704"" width=""1486""><rect height=""70.4"" width=""70.4""y=""316.8""x=""707.8"" fill=""green""/></svg>","83","stim_present","test","green","middle","html-keyboard-response","244","266870","0.0-3.0-0.2-1.107","27y9","true"
"405.29500000411645","<svg height=""704"" width=""1486""><rect height=""70.4"" width=""70.4""y=""316.8""x=""707.8"" fill=""green""/></svg>","83","stim_present","test","green","middle","html-keyboard-response","247","278262","0.0-3.0-0.3-1.108","27y9","true"
"415.4149999958463","<svg height=""704"" width=""1486""><rect height=""70.4"" width=""70.4""y=""316.8""x=""1114.5"" fill=""green""/></svg>","83","stim_present","test","green","right","html-keyboard-response","249","279193","0.0-3.0-0.3-1.109","27y9","true"
"455.1000000210479","<svg height=""704"" width=""1486""><rect height=""70.4"" width=""70.4""y=""316.8""x=""371.5"" fill=""red""/></svg>","76","stim_present","test","red","left","html-keyboard-response","251","280154","0.0-3.0-0.3-1.110","27y9","true"
"403.0949999578297","<svg height=""704"" width=""1486""><rect height=""70.4"" width=""70.4""y=""316.8""x=""371.5"" fill=""green""/></svg>","83","stim_present","test","green","left","html-keyboard-response","253","281064","0.0-3.0-0.3-1.111","27y9","true"
"539.0349999652244","<svg height=""704"" width=""1486""><rect height=""70.4"" width=""70.4""y=""316.8""x=""1114.5"" fill=""red""/></svg>","76","stim_present","test","red","right","html-keyboard-response","255","282114","0.0-3.0-0.3-1.112","27y9","true"
"375.110000022687","<svg height=""704"" width=""1486""><rect height=""70.4"" width=""70.4""y=""316.8""x=""707.8"" fill=""red""/></svg>","76","stim_present","test","red","middle","html-keyboard-response","257","283006","0.0-3.0-0.3-1.113","27y9","true"
"725.1699999906123","<svg height=""704"" width=""1486""><rect height=""70.4"" width=""70.4""y=""316.8""x=""1114.5"" fill=""green""/></svg>","83","stim_present","test","green","right","html-keyboard-response","259","284243","0.0-3.0-0.3-1.114","27y9","true"
"462.9449999774806","<svg height=""704"" width=""1486""><rect height=""70.4"" width=""70.4""y=""316.8""x=""707.8"" fill=""green""/></svg>","83","stim_present","test","green","middle","html-keyboard-response","261","285222","0.0-3.0-0.3-1.115","27y9","true"
"334.88500001840293","<svg height=""704"" width=""1486""><rect height=""70.4"" width=""70.4""y=""316.8""x=""371.5"" fill=""green""/></svg>","83","stim_present","test","green","left","html-keyboard-response","263","286069","0.0-3.0-0.3-1.116","27y9","true"
"356.5350000280887","<svg height=""704"" width=""1486""><rect height=""70.4"" width=""70.4""y=""316.8""x=""371.5"" fill=""red""/></svg>","76","stim_present","test","red","left","html-keyboard-response","265","286929","0.0-3.0-0.3-1.117","27y9","true"
"494.185000017751","<svg height=""704"" width=""1486""><rect height=""70.4"" width=""70.4""y=""316.8""x=""707.8"" fill=""red""/></svg>","76","stim_present","test","red","middle","html-keyboard-response","267","287945","0.0-3.0-0.3-1.118","27y9","true"
"344.0999999875203","<svg height=""704"" width=""1486""><rect height=""70.4"" width=""70.4""y=""316.8""x=""1114.5"" fill=""red""/></svg>","83","stim_present","test","red","right","html-keyboard-response","269","288810","0.0-3.0-0.3-1.119","27y9","false"
"374.76500001503155","<svg height=""704"" width=""1486""><rect height=""70.4"" width=""70.4""y=""316.8""x=""1114.5"" fill=""green""/></svg>","83","stim_present","test","green","right","html-keyboard-response","271","289702","0.0-3.0-0.3-1.120","27y9","true"
"511.8600000278093","<svg height=""704"" width=""1486""><rect height=""70.4"" width=""70.4""y=""316.8""x=""707.8"" fill=""green""/></svg>","83","stim_present","test","green","middle","html-keyboard-response","273","290719","0.0-3.0-0.3-1.121","27y9","true"
"357.3850000393577","<svg height=""704"" width=""1486""><rect height=""70.4"" width=""70.4""y=""316.8""x=""371.5"" fill=""green""/></svg>","83","stim_present","test","green","left","html-keyboard-response","275","291579","0.0-3.0-0.3-1.122","27y9","true"
"474.06999999657273","<svg height=""704"" width=""1486""><rect height=""70.4"" width=""70.4""y=""316.8""x=""371.5"" fill=""red""/></svg>","76","stim_present","test","red","left","html-keyboard-response","277","292569","0.0-3.0-0.3-1.123","27y9","true"
"315.23499998729676","<svg height=""704"" width=""1486""><rect height=""70.4"" width=""70.4""y=""316.8""x=""707.8"" fill=""red""/></svg>","76","stim_present","test","red","middle","html-keyboard-response","279","293399","0.0-3.0-0.3-1.124","27y9","true"
"370.67000003298745","<svg height=""704"" width=""1486""><rect height=""70.4"" width=""70.4""y=""316.8""x=""1114.5"" fill=""red""/></svg>","76","stim_present","test","red","right","html-keyboard-response","281","294286","0.0-3.0-0.3-1.125","27y9","true"
"420.66000000340864","<svg height=""704"" width=""1486""><rect height=""70.4"" width=""70.4""y=""316.8""x=""371.5"" fill=""red""/></svg>","76","stim_present","test","red","left","html-keyboard-response","283","295220","0.0-3.0-0.3-1.126","27y9","true"
"310.57499995222315","<svg height=""704"" width=""1486""><rect height=""70.4"" width=""70.4""y=""316.8""x=""1114.5"" fill=""green""/></svg>","83","stim_present","test","green","right","html-keyboard-response","285","296040","0.0-3.0-0.3-1.127","27y9","true"
"606.1749999644235","<svg height=""704"" width=""1486""><rect height=""70.4"" width=""70.4""y=""316.8""x=""1114.5"" fill=""red""/></svg>","76","stim_present","test","red","right","html-keyboard-response","287","297158","0.0-3.0-0.3-1.128","27y9","true"
"586.7350000189617","<svg height=""704"" width=""1486""><rect height=""70.4"" width=""70.4""y=""316.8""x=""707.8"" fill=""green""/></svg>","83","stim_present","test","green","middle","html-keyboard-response","289","298262","0.0-3.0-0.3-1.129","27y9","true"
"375.3100000321865","<svg height=""704"" width=""1486""><rect height=""70.4"" width=""70.4""y=""316.8""x=""371.5"" fill=""green""/></svg>","83","stim_present","test","green","left","html-keyboard-response","291","299155","0.0-3.0-0.3-1.130","27y9","true"
"373.17999999504536","<svg height=""704"" width=""1486""><rect height=""70.4"" width=""70.4""y=""316.8""x=""707.8"" fill=""red""/></svg>","76","stim_present","test","red","middle","html-keyboard-response","293","300035","0.0-3.0-0.3-1.131","27y9","true"
"397.45499996934086","<svg height=""704"" width=""1486""><rect height=""70.4"" width=""70.4""y=""316.8""x=""1114.5"" fill=""green""/></svg>","83","stim_present","test","green","right","html-keyboard-response","295","300957","0.0-3.0-0.3-1.132","27y9","true"
"598.8449999713339","<svg height=""704"" width=""1486""><rect height=""70.4"" width=""70.4""y=""316.8""x=""371.5"" fill=""red""/></svg>","76","stim_present","test","red","left","html-keyboard-response","297","302062","0.0-3.0-0.3-1.133","27y9","true"
"380.219999991823","<svg height=""704"" width=""1486""><rect height=""70.4"" width=""70.4""y=""316.8""x=""707.8"" fill=""green""/></svg>","83","stim_present","test","green","middle","html-keyboard-response","299","302958","0.0-3.0-0.3-1.134","27y9","true"
"461.9099999545142","<svg height=""704"" width=""1486""><rect height=""70.4"" width=""70.4""y=""316.8""x=""1114.5"" fill=""red""/></svg>","76","stim_present","test","red","right","html-keyboard-response","301","303925","0.0-3.0-0.3-1.135","27y9","true"
"339.90500000072643","<svg height=""704"" width=""1486""><rect height=""70.4"" width=""70.4""y=""316.8""x=""371.5"" fill=""green""/></svg>","83","stim_present","test","green","left","html-keyboard-response","303","304774","0.0-3.0-0.3-1.136","27y9","true"
"423.08500001672655","<svg height=""704"" width=""1486""><rect height=""70.4"" width=""70.4""y=""316.8""x=""707.8"" fill=""red""/></svg>","76","stim_present","test","red","middle","html-keyboard-response","305","305701","0.0-3.0-0.3-1.137","27y9","true"
"394.81999998679385","<svg height=""704"" width=""1486""><rect height=""70.4"" width=""70.4""y=""316.8""x=""1114.5"" fill=""green""/></svg>","83","stim_present","test","green","right","html-keyboard-response","307","306606","0.0-3.0-0.3-1.138","27y9","true"
"370.714999968186","<svg height=""704"" width=""1486""><rect height=""70.4"" width=""70.4""y=""316.8""x=""371.5"" fill=""red""/></svg>","76","stim_present","test","red","left","html-keyboard-response","309","307492","0.0-3.0-0.3-1.139","27y9","true"
"658.4600000060163","<svg height=""704"" width=""1486""><rect height=""70.4"" width=""70.4""y=""316.8""x=""1114.5"" fill=""red""/></svg>","76","stim_present","test","red","right","html-keyboard-response","311","308663","0.0-3.0-0.3-1.140","27y9","true"
"410.77000001678243","<svg height=""704"" width=""1486""><rect height=""70.4"" width=""70.4""y=""316.8""x=""707.8"" fill=""red""/></svg>","76","stim_present","test","red","middle","html-keyboard-response","313","309590","0.0-3.0-0.3-1.141","27y9","true"
"405.9249999700114","<svg height=""704"" width=""1486""><rect height=""70.4"" width=""70.4""y=""316.8""x=""371.5"" fill=""green""/></svg>","83","stim_present","test","green","left","html-keyboard-response","315","310512","0.0-3.0-0.3-1.142","27y9","true"
"453.08500004466623","<svg height=""704"" width=""1486""><rect height=""70.4"" width=""70.4""y=""316.8""x=""707.8"" fill=""green""/></svg>","83","stim_present","test","green","middle","html-keyboard-response","317","311482","0.0-3.0-0.3-1.143","27y9","true"
