"rt","stimulus","key_press","type","part","color","position","trial_type","trial_index","time_elapsed","internal_node_id","subject","accuracy"
"543.3800000173505","<svg height=""703"" width=""1412""><rect height=""70.3"" width=""70.3""y=""316.35""x=""1059"" fill=""red""/></svg>","76","stim_present","training","red","right","html-keyboard-response","3","35743","0.0-2.0-0.0-1.0","jqpo","true"
"474.7849999985192","<svg height=""703"" width=""1412""><rect height=""70.3"" width=""70.3""y=""316.35""x=""353"" fill=""red""/></svg>","76","stim_present","training","red","left","html-keyboard-response","5","36732","0.0-2.0-0.0-1.1","jqpo","true"
"357.06999999820255","<svg height=""703"" width=""1412""><rect height=""70.3"" width=""70.3""y=""316.35""x=""670.85"" fill=""green""/></svg>","83","stim_present","training","green","middle","html-keyboard-response","7","37599","0.0-2.0-0.0-1.2","jqpo","true"
"357.0849999960046","<svg height=""703"" width=""1412""><rect height=""70.3"" width=""70.3""y=""316.35""x=""353"" fill=""green""/></svg>","83","stim_present","training","green","left","html-keyboard-response","9","38460","0.0-2.0-0.0-1.3","jqpo","true"
"414.57500000251457","<svg height=""703"" width=""1412""><rect height=""70.3"" width=""70.3""y=""316.35""x=""670.85"" fill=""red""/></svg>","76","stim_present","training","red","middle","html-keyboard-response","11","39379","0.0-2.0-0.0-1.4","jqpo","true"
"429.0000000037253","<svg height=""703"" width=""1412""><rect height=""70.3"" width=""70.3""y=""316.35""x=""1059"" fill=""green""/></svg>","83","stim_present","training","green","right","html-keyboard-response","13","40318","0.0-2.0-0.0-1.5","jqpo","true"
"310.30000001192093","<svg height=""703"" width=""1412""><rect height=""70.3"" width=""70.3""y=""316.35""x=""1059"" fill=""red""/></svg>","76","stim_present","training","red","right","html-keyboard-response","15","41142","0.0-2.0-0.0-1.6","jqpo","true"
"515.6049999932293","<svg height=""703"" width=""1412""><rect height=""70.3"" width=""70.3""y=""316.35""x=""1059"" fill=""green""/></svg>","83","stim_present","training","green","right","html-keyboard-response","17","42161","0.0-2.0-0.0-1.7","jqpo","true"
"355.9250000107568","<svg height=""703"" width=""1412""><rect height=""70.3"" width=""70.3""y=""316.35""x=""670.85"" fill=""red""/></svg>","76","stim_present","training","red","middle","html-keyboard-response","19","43033","0.0-2.0-0.0-1.8","jqpo","true"
"541.1600000225008","<svg height=""703"" width=""1412""><rect height=""70.3"" width=""70.3""y=""316.35""x=""353"" fill=""red""/></svg>","76","stim_present","training","red","left","html-keyboard-response","21","44078","0.0-2.0-0.0-1.9","jqpo","true"
"488.12999998335727","<svg height=""703"" width=""1412""><rect height=""70.3"" width=""70.3""y=""316.35""x=""353"" fill=""green""/></svg>","83","stim_present","training","green","left","html-keyboard-response","23","45073","0.0-2.0-0.0-1.10","jqpo","true"
"423.3599999861326","<svg height=""703"" width=""1412""><rect height=""70.3"" width=""70.3""y=""316.35""x=""670.85"" fill=""green""/></svg>","83","stim_present","training","green","middle","html-keyboard-response","25","45997","0.0-2.0-0.0-1.11","jqpo","true"
"402.9949999821838","<svg height=""703"" width=""1412""><rect height=""70.3"" width=""70.3""y=""316.35""x=""670.85"" fill=""red""/></svg>","76","stim_present","test","red","middle","html-keyboard-response","28","54716","0.0-3.0-0.0-1.0","jqpo","true"
"449.91000002482906","<svg height=""703"" width=""1412""><rect height=""70.3"" width=""70.3""y=""316.35""x=""670.85"" fill=""green""/></svg>","83","stim_present","test","green","middle","html-keyboard-response","30","55671","0.0-3.0-0.0-1.1","jqpo","true"
"485.97999999765307","<svg height=""703"" width=""1412""><rect height=""70.3"" width=""70.3""y=""316.35""x=""1059"" fill=""red""/></svg>","76","stim_present","test","red","right","html-keyboard-response","32","56662","0.0-3.0-0.0-1.2","jqpo","true"
"445.5900000175461","<svg height=""703"" width=""1412""><rect height=""70.3"" width=""70.3""y=""316.35""x=""1059"" fill=""green""/></svg>","83","stim_present","test","green","right","html-keyboard-response","34","57616","0.0-3.0-0.0-1.3","jqpo","true"
"340.55500000249594","<svg height=""703"" width=""1412""><rect height=""70.3"" width=""70.3""y=""316.35""x=""353"" fill=""red""/></svg>","76","stim_present","test","red","left","html-keyboard-response","36","58464","0.0-3.0-0.0-1.4","jqpo","true"
"508.32000002264977","<svg height=""703"" width=""1412""><rect height=""70.3"" width=""70.3""y=""316.35""x=""353"" fill=""green""/></svg>","76","stim_present","test","green","left","html-keyboard-response","38","59477","0.0-3.0-0.0-1.5","jqpo","false"
"482.9899999895133","<svg height=""703"" width=""1412""><rect height=""70.3"" width=""70.3""y=""316.35""x=""670.85"" fill=""green""/></svg>","83","stim_present","test","green","middle","html-keyboard-response","40","60470","0.0-3.0-0.0-1.6","jqpo","true"
"399.33499999460764","<svg height=""703"" width=""1412""><rect height=""70.3"" width=""70.3""y=""316.35""x=""670.85"" fill=""red""/></svg>","76","stim_present","test","red","middle","html-keyboard-response","42","61374","0.0-3.0-0.0-1.7","jqpo","true"
"460.5500000179745","<svg height=""703"" width=""1412""><rect height=""70.3"" width=""70.3""y=""316.35""x=""353"" fill=""red""/></svg>","76","stim_present","test","red","left","html-keyboard-response","44","62339","0.0-3.0-0.0-1.8","jqpo","true"
"460.94000001903623","<svg height=""703"" width=""1412""><rect height=""70.3"" width=""70.3""y=""316.35""x=""353"" fill=""green""/></svg>","83","stim_present","test","green","left","html-keyboard-response","46","63309","0.0-3.0-0.0-1.9","jqpo","true"
"434.5199999806937","<svg height=""703"" width=""1412""><rect height=""70.3"" width=""70.3""y=""316.35""x=""1059"" fill=""red""/></svg>","76","stim_present","test","red","right","html-keyboard-response","48","64253","0.0-3.0-0.0-1.10","jqpo","true"
"465.9199999878183","<svg height=""703"" width=""1412""><rect height=""70.3"" width=""70.3""y=""316.35""x=""1059"" fill=""green""/></svg>","83","stim_present","test","green","right","html-keyboard-response","50","65223","0.0-3.0-0.0-1.11","jqpo","true"
"507.4600000225473","<svg height=""703"" width=""1412""><rect height=""70.3"" width=""70.3""y=""316.35""x=""1059"" fill=""red""/></svg>","76","stim_present","test","red","right","html-keyboard-response","52","66239","0.0-3.0-0.0-1.12","jqpo","true"
"317.56999998469837","<svg height=""703"" width=""1412""><rect height=""70.3"" width=""70.3""y=""316.35""x=""353"" fill=""red""/></svg>","83","stim_present","test","red","left","html-keyboard-response","54","67073","0.0-3.0-0.0-1.13","jqpo","false"
"543.0550000164658","<svg height=""703"" width=""1412""><rect height=""70.3"" width=""70.3""y=""316.35""x=""670.85"" fill=""red""/></svg>","76","stim_present","test","red","middle","html-keyboard-response","56","68129","0.0-3.0-0.0-1.14","jqpo","true"
"370.1450000226032","<svg height=""703"" width=""1412""><rect height=""70.3"" width=""70.3""y=""316.35""x=""353"" fill=""green""/></svg>","83","stim_present","test","green","left","html-keyboard-response","58","69003","0.0-3.0-0.0-1.15","jqpo","true"
"391.68500000960194","<svg height=""703"" width=""1412""><rect height=""70.3"" width=""70.3""y=""316.35""x=""670.85"" fill=""green""/></svg>","83","stim_present","test","green","middle","html-keyboard-response","60","69904","0.0-3.0-0.0-1.16","jqpo","true"
"469.8750000097789","<svg height=""703"" width=""1412""><rect height=""70.3"" width=""70.3""y=""316.35""x=""1059"" fill=""green""/></svg>","83","stim_present","test","green","right","html-keyboard-response","62","70886","0.0-3.0-0.0-1.17","jqpo","true"
"355.4700000095181","<svg height=""703"" width=""1412""><rect height=""70.3"" width=""70.3""y=""316.35""x=""670.85"" fill=""green""/></svg>","83","stim_present","test","green","middle","html-keyboard-response","64","71754","0.0-3.0-0.0-1.18","jqpo","true"
"363.7400000006892","<svg height=""703"" width=""1412""><rect height=""70.3"" width=""70.3""y=""316.35""x=""1059"" fill=""green""/></svg>","83","stim_present","test","green","right","html-keyboard-response","66","72623","0.0-3.0-0.0-1.19","jqpo","true"
"423.79499998060055","<svg height=""703"" width=""1412""><rect height=""70.3"" width=""70.3""y=""316.35""x=""670.85"" fill=""red""/></svg>","76","stim_present","test","red","middle","html-keyboard-response","68","73559","0.0-3.0-0.0-1.20","jqpo","true"
"326.7749999940861","<svg height=""703"" width=""1412""><rect height=""70.3"" width=""70.3""y=""316.35""x=""353"" fill=""red""/></svg>","76","stim_present","test","red","left","html-keyboard-response","70","74388","0.0-3.0-0.0-1.21","jqpo","true"
"358.68000000482425","<svg height=""703"" width=""1412""><rect height=""70.3"" width=""70.3""y=""316.35""x=""1059"" fill=""red""/></svg>","76","stim_present","test","red","right","html-keyboard-response","72","75249","0.0-3.0-0.0-1.22","jqpo","true"
"370.62000000150874","<svg height=""703"" width=""1412""><rect height=""70.3"" width=""70.3""y=""316.35""x=""353"" fill=""green""/></svg>","83","stim_present","test","green","left","html-keyboard-response","74","76124","0.0-3.0-0.0-1.23","jqpo","true"
"391.50999998673797","<svg height=""703"" width=""1412""><rect height=""70.3"" width=""70.3""y=""316.35""x=""353"" fill=""green""/></svg>","83","stim_present","test","green","left","html-keyboard-response","76","77017","0.0-3.0-0.0-1.24","jqpo","true"
"420.0750000018161","<svg height=""703"" width=""1412""><rect height=""70.3"" width=""70.3""y=""316.35""x=""670.85"" fill=""red""/></svg>","76","stim_present","test","red","middle","html-keyboard-response","78","77952","0.0-3.0-0.0-1.25","jqpo","true"
"319.4550000189338","<svg height=""703"" width=""1412""><rect height=""70.3"" width=""70.3""y=""316.35""x=""1059"" fill=""green""/></svg>","83","stim_present","test","green","right","html-keyboard-response","80","78787","0.0-3.0-0.0-1.26","jqpo","true"
"354.38500001328066","<svg height=""703"" width=""1412""><rect height=""70.3"" width=""70.3""y=""316.35""x=""353"" fill=""red""/></svg>","76","stim_present","test","red","left","html-keyboard-response","82","79650","0.0-3.0-0.0-1.27","jqpo","true"
"401.7500000190921","<svg height=""703"" width=""1412""><rect height=""70.3"" width=""70.3""y=""316.35""x=""1059"" fill=""red""/></svg>","76","stim_present","test","red","right","html-keyboard-response","84","80559","0.0-3.0-0.0-1.28","jqpo","true"
"412.16000000713393","<svg height=""703"" width=""1412""><rect height=""70.3"" width=""70.3""y=""316.35""x=""670.85"" fill=""green""/></svg>","83","stim_present","test","green","middle","html-keyboard-response","86","81474","0.0-3.0-0.0-1.29","jqpo","true"
"342.36500001861714","<svg height=""703"" width=""1412""><rect height=""70.3"" width=""70.3""y=""316.35""x=""353"" fill=""green""/></svg>","83","stim_present","test","green","left","html-keyboard-response","88","82327","0.0-3.0-0.0-1.30","jqpo","true"
"357.2950000234414","<svg height=""703"" width=""1412""><rect height=""70.3"" width=""70.3""y=""316.35""x=""670.85"" fill=""green""/></svg>","83","stim_present","test","green","middle","html-keyboard-response","90","83196","0.0-3.0-0.0-1.31","jqpo","true"
"370.12000000686385","<svg height=""703"" width=""1412""><rect height=""70.3"" width=""70.3""y=""316.35""x=""353"" fill=""red""/></svg>","76","stim_present","test","red","left","html-keyboard-response","92","84075","0.0-3.0-0.0-1.32","jqpo","true"
"483.71500000939704","<svg height=""703"" width=""1412""><rect height=""70.3"" width=""70.3""y=""316.35""x=""1059"" fill=""red""/></svg>","83","stim_present","test","red","right","html-keyboard-response","94","85070","0.0-3.0-0.0-1.33","jqpo","false"
"404.8400000028778","<svg height=""703"" width=""1412""><rect height=""70.3"" width=""70.3""y=""316.35""x=""670.85"" fill=""red""/></svg>","76","stim_present","test","red","middle","html-keyboard-response","96","85989","0.0-3.0-0.0-1.34","jqpo","true"
"409.3949999951292","<svg height=""703"" width=""1412""><rect height=""70.3"" width=""70.3""y=""316.35""x=""1059"" fill=""green""/></svg>","83","stim_present","test","green","right","html-keyboard-response","98","86904","0.0-3.0-0.0-1.35","jqpo","true"
"366.68000000645407","<svg height=""703"" width=""1412""><rect height=""70.3"" width=""70.3""y=""316.35""x=""670.85"" fill=""red""/></svg>","76","stim_present","test","red","middle","html-keyboard-response","101","90090","0.0-3.0-0.1-1.36","jqpo","true"
"317.82500000554137","<svg height=""703"" width=""1412""><rect height=""70.3"" width=""70.3""y=""316.35""x=""353"" fill=""green""/></svg>","83","stim_present","test","green","left","html-keyboard-response","103","90916","0.0-3.0-0.1-1.37","jqpo","true"
"325.1000000163913","<svg height=""703"" width=""1412""><rect height=""70.3"" width=""70.3""y=""316.35""x=""1059"" fill=""red""/></svg>","76","stim_present","test","red","right","html-keyboard-response","105","91756","0.0-3.0-0.1-1.38","jqpo","true"
"324.02500000898726","<svg height=""703"" width=""1412""><rect height=""70.3"" width=""70.3""y=""316.35""x=""353"" fill=""red""/></svg>","83","stim_present","test","red","left","html-keyboard-response","107","92582","0.0-3.0-0.1-1.39","jqpo","false"
"526.4350000070408","<svg height=""703"" width=""1412""><rect height=""70.3"" width=""70.3""y=""316.35""x=""1059"" fill=""green""/></svg>","83","stim_present","test","green","right","html-keyboard-response","109","93619","0.0-3.0-0.1-1.40","jqpo","true"
"356.66000001947396","<svg height=""703"" width=""1412""><rect height=""70.3"" width=""70.3""y=""316.35""x=""670.85"" fill=""green""/></svg>","83","stim_present","test","green","middle","html-keyboard-response","111","94480","0.0-3.0-0.1-1.41","jqpo","true"
"359.2200000130106","<svg height=""703"" width=""1412""><rect height=""70.3"" width=""70.3""y=""316.35""x=""1059"" fill=""green""/></svg>","83","stim_present","test","green","right","html-keyboard-response","113","95341","0.0-3.0-0.1-1.42","jqpo","true"
"355.3249999822583","<svg height=""703"" width=""1412""><rect height=""70.3"" width=""70.3""y=""316.35""x=""1059"" fill=""red""/></svg>","83","stim_present","test","red","right","html-keyboard-response","115","96202","0.0-3.0-0.1-1.43","jqpo","false"
"532.3650000209454","<svg height=""703"" width=""1412""><rect height=""70.3"" width=""70.3""y=""316.35""x=""353"" fill=""green""/></svg>","83","stim_present","test","green","left","html-keyboard-response","117","97245","0.0-3.0-0.1-1.44","jqpo","true"
"329.8649999778718","<svg height=""703"" width=""1412""><rect height=""70.3"" width=""70.3""y=""316.35""x=""670.85"" fill=""green""/></svg>","83","stim_present","test","green","middle","html-keyboard-response","119","98090","0.0-3.0-0.1-1.45","jqpo","true"
"372.4950000178069","<svg height=""703"" width=""1412""><rect height=""70.3"" width=""70.3""y=""316.35""x=""353"" fill=""red""/></svg>","76","stim_present","test","red","left","html-keyboard-response","121","98977","0.0-3.0-0.1-1.46","jqpo","true"
"344.7849999938626","<svg height=""703"" width=""1412""><rect height=""70.3"" width=""70.3""y=""316.35""x=""670.85"" fill=""red""/></svg>","76","stim_present","test","red","middle","html-keyboard-response","123","99838","0.0-3.0-0.1-1.47","jqpo","true"
"372.2450000059325","<svg height=""703"" width=""1412""><rect height=""70.3"" width=""70.3""y=""316.35""x=""1059"" fill=""red""/></svg>","76","stim_present","test","red","right","html-keyboard-response","125","100715","0.0-3.0-0.1-1.48","jqpo","true"
"369.1349999862723","<svg height=""703"" width=""1412""><rect height=""70.3"" width=""70.3""y=""316.35""x=""353"" fill=""red""/></svg>","76","stim_present","test","red","left","html-keyboard-response","127","101591","0.0-3.0-0.1-1.49","jqpo","true"
"417.4600000260398","<svg height=""703"" width=""1412""><rect height=""70.3"" width=""70.3""y=""316.35""x=""353"" fill=""green""/></svg>","83","stim_present","test","green","left","html-keyboard-response","129","102514","0.0-3.0-0.1-1.50","jqpo","true"
"327.4000000092201","<svg height=""703"" width=""1412""><rect height=""70.3"" width=""70.3""y=""316.35""x=""670.85"" fill=""red""/></svg>","76","stim_present","test","red","middle","html-keyboard-response","131","103345","0.0-3.0-0.1-1.51","jqpo","true"
"404.94499998749234","<svg height=""703"" width=""1412""><rect height=""70.3"" width=""70.3""y=""316.35""x=""1059"" fill=""green""/></svg>","76","stim_present","test","green","right","html-keyboard-response","133","104254","0.0-3.0-0.1-1.52","jqpo","false"
"448.83500001742505","<svg height=""703"" width=""1412""><rect height=""70.3"" width=""70.3""y=""316.35""x=""670.85"" fill=""green""/></svg>","83","stim_present","test","green","middle","html-keyboard-response","135","105208","0.0-3.0-0.1-1.53","jqpo","true"
"329.5149999903515","<svg height=""703"" width=""1412""><rect height=""70.3"" width=""70.3""y=""316.35""x=""353"" fill=""green""/></svg>","83","stim_present","test","green","left","html-keyboard-response","137","106045","0.0-3.0-0.1-1.54","jqpo","true"
"401.2900000088848","<svg height=""703"" width=""1412""><rect height=""70.3"" width=""70.3""y=""316.35""x=""1059"" fill=""green""/></svg>","83","stim_present","test","green","right","html-keyboard-response","139","106962","0.0-3.0-0.1-1.55","jqpo","true"
"402.6949999970384","<svg height=""703"" width=""1412""><rect height=""70.3"" width=""70.3""y=""316.35""x=""353"" fill=""red""/></svg>","76","stim_present","test","red","left","html-keyboard-response","141","107882","0.0-3.0-0.1-1.56","jqpo","true"
"364.8350000148639","<svg height=""703"" width=""1412""><rect height=""70.3"" width=""70.3""y=""316.35""x=""670.85"" fill=""red""/></svg>","76","stim_present","test","red","middle","html-keyboard-response","143","108751","0.0-3.0-0.1-1.57","jqpo","true"
"581.7999999853782","<svg height=""703"" width=""1412""><rect height=""70.3"" width=""70.3""y=""316.35""x=""670.85"" fill=""green""/></svg>","83","stim_present","test","green","middle","html-keyboard-response","145","109848","0.0-3.0-0.1-1.58","jqpo","true"
"485.49500000081025","<svg height=""703"" width=""1412""><rect height=""70.3"" width=""70.3""y=""316.35""x=""1059"" fill=""red""/></svg>","76","stim_present","test","red","right","html-keyboard-response","147","110846","0.0-3.0-0.1-1.59","jqpo","true"
"433.9249999902677","<svg height=""703"" width=""1412""><rect height=""70.3"" width=""70.3""y=""316.35""x=""1059"" fill=""green""/></svg>","83","stim_present","test","green","right","html-keyboard-response","149","111785","0.0-3.0-0.1-1.60","jqpo","true"
"396.4900000137277","<svg height=""703"" width=""1412""><rect height=""70.3"" width=""70.3""y=""316.35""x=""353"" fill=""green""/></svg>","83","stim_present","test","green","left","html-keyboard-response","151","112686","0.0-3.0-0.1-1.61","jqpo","true"
"352.2700000030454","<svg height=""703"" width=""1412""><rect height=""70.3"" width=""70.3""y=""316.35""x=""1059"" fill=""red""/></svg>","76","stim_present","test","red","right","html-keyboard-response","153","113541","0.0-3.0-0.1-1.62","jqpo","true"
"328.3999999985099","<svg height=""703"" width=""1412""><rect height=""70.3"" width=""70.3""y=""316.35""x=""353"" fill=""red""/></svg>","83","stim_present","test","red","left","html-keyboard-response","155","114384","0.0-3.0-0.1-1.63","jqpo","false"
"517.9750000243075","<svg height=""703"" width=""1412""><rect height=""70.3"" width=""70.3""y=""316.35""x=""670.85"" fill=""green""/></svg>","83","stim_present","test","green","middle","html-keyboard-response","157","115404","0.0-3.0-0.1-1.64","jqpo","true"
"312.4100000131875","<svg height=""703"" width=""1412""><rect height=""70.3"" width=""70.3""y=""316.35""x=""670.85"" fill=""red""/></svg>","76","stim_present","test","red","middle","html-keyboard-response","159","116219","0.0-3.0-0.1-1.65","jqpo","true"
"357.0400000025984","<svg height=""703"" width=""1412""><rect height=""70.3"" width=""70.3""y=""316.35""x=""353"" fill=""red""/></svg>","76","stim_present","test","red","left","html-keyboard-response","161","117080","0.0-3.0-0.1-1.66","jqpo","true"
"346.05500000179745","<svg height=""703"" width=""1412""><rect height=""70.3"" width=""70.3""y=""316.35""x=""1059"" fill=""green""/></svg>","83","stim_present","test","green","right","html-keyboard-response","163","117939","0.0-3.0-0.1-1.67","jqpo","true"
"351.0600000154227","<svg height=""703"" width=""1412""><rect height=""70.3"" width=""70.3""y=""316.35""x=""353"" fill=""green""/></svg>","83","stim_present","test","green","left","html-keyboard-response","165","118792","0.0-3.0-0.1-1.68","jqpo","true"
"366.6300000040792","<svg height=""703"" width=""1412""><rect height=""70.3"" width=""70.3""y=""316.35""x=""670.85"" fill=""green""/></svg>","83","stim_present","test","green","middle","html-keyboard-response","167","119669","0.0-3.0-0.1-1.69","jqpo","true"
"452.5849999918137","<svg height=""703"" width=""1412""><rect height=""70.3"" width=""70.3""y=""316.35""x=""1059"" fill=""red""/></svg>","76","stim_present","test","red","right","html-keyboard-response","169","120628","0.0-3.0-0.1-1.70","jqpo","true"
"302.12000000756234","<svg height=""703"" width=""1412""><rect height=""70.3"" width=""70.3""y=""316.35""x=""670.85"" fill=""red""/></svg>","83","stim_present","test","red","middle","html-keyboard-response","171","121446","0.0-3.0-0.1-1.71","jqpo","false"
"428.62500000046566","<svg height=""703"" width=""1412""><rect height=""70.3"" width=""70.3""y=""316.35""x=""1059"" fill=""red""/></svg>","76","stim_present","test","red","right","html-keyboard-response","174","123291","0.0-3.0-0.2-1.72","jqpo","true"
"377.6450000004843","<svg height=""703"" width=""1412""><rect height=""70.3"" width=""70.3""y=""316.35""x=""670.85"" fill=""red""/></svg>","76","stim_present","test","red","middle","html-keyboard-response","176","124176","0.0-3.0-0.2-1.73","jqpo","true"
"394.50500000384636","<svg height=""703"" width=""1412""><rect height=""70.3"" width=""70.3""y=""316.35""x=""670.85"" fill=""green""/></svg>","83","stim_present","test","green","middle","html-keyboard-response","178","125082","0.0-3.0-0.2-1.74","jqpo","true"
"326.5550000069197","<svg height=""703"" width=""1412""><rect height=""70.3"" width=""70.3""y=""316.35""x=""353"" fill=""green""/></svg>","83","stim_present","test","green","left","html-keyboard-response","180","125919","0.0-3.0-0.2-1.75","jqpo","true"
"407.3950000165496","<svg height=""703"" width=""1412""><rect height=""70.3"" width=""70.3""y=""316.35""x=""1059"" fill=""green""/></svg>","83","stim_present","test","green","right","html-keyboard-response","182","126828","0.0-3.0-0.2-1.76","jqpo","true"
"350.1500000129454","<svg height=""703"" width=""1412""><rect height=""70.3"" width=""70.3""y=""316.35""x=""353"" fill=""red""/></svg>","76","stim_present","test","red","left","html-keyboard-response","184","127691","0.0-3.0-0.2-1.77","jqpo","true"
"392.35999999800697","<svg height=""703"" width=""1412""><rect height=""70.3"" width=""70.3""y=""316.35""x=""353"" fill=""red""/></svg>","76","stim_present","test","red","left","html-keyboard-response","186","128592","0.0-3.0-0.2-1.78","jqpo","true"
"394.8099999979604","<svg height=""703"" width=""1412""><rect height=""70.3"" width=""70.3""y=""316.35""x=""1059"" fill=""red""/></svg>","76","stim_present","test","red","right","html-keyboard-response","188","129500","0.0-3.0-0.2-1.79","jqpo","true"
"417.8700000047684","<svg height=""703"" width=""1412""><rect height=""70.3"" width=""70.3""y=""316.35""x=""670.85"" fill=""green""/></svg>","83","stim_present","test","green","middle","html-keyboard-response","190","130431","0.0-3.0-0.2-1.80","jqpo","true"
"416.430000012042","<svg height=""703"" width=""1412""><rect height=""70.3"" width=""70.3""y=""316.35""x=""670.85"" fill=""red""/></svg>","76","stim_present","test","red","middle","html-keyboard-response","192","131351","0.0-3.0-0.2-1.81","jqpo","true"
"405.96499998355284","<svg height=""703"" width=""1412""><rect height=""70.3"" width=""70.3""y=""316.35""x=""353"" fill=""green""/></svg>","76","stim_present","test","green","left","html-keyboard-response","194","132267","0.0-3.0-0.2-1.82","jqpo","false"
"395.48000000650063","<svg height=""703"" width=""1412""><rect height=""70.3"" width=""70.3""y=""316.35""x=""1059"" fill=""green""/></svg>","83","stim_present","test","green","right","html-keyboard-response","196","133179","0.0-3.0-0.2-1.83","jqpo","true"
"410.01500000129454","<svg height=""703"" width=""1412""><rect height=""70.3"" width=""70.3""y=""316.35""x=""353"" fill=""green""/></svg>","83","stim_present","test","green","left","html-keyboard-response","198","134096","0.0-3.0-0.2-1.84","jqpo","true"
"386.80499998736195","<svg height=""703"" width=""1412""><rect height=""70.3"" width=""70.3""y=""316.35""x=""353"" fill=""red""/></svg>","83","stim_present","test","red","left","html-keyboard-response","200","134997","0.0-3.0-0.2-1.85","jqpo","false"
"568.4049999981653","<svg height=""703"" width=""1412""><rect height=""70.3"" width=""70.3""y=""316.35""x=""1059"" fill=""green""/></svg>","83","stim_present","test","green","right","html-keyboard-response","202","136072","0.0-3.0-0.2-1.86","jqpo","true"
"350.84500000812113","<svg height=""703"" width=""1412""><rect height=""70.3"" width=""70.3""y=""316.35""x=""670.85"" fill=""red""/></svg>","76","stim_present","test","red","middle","html-keyboard-response","204","136927","0.0-3.0-0.2-1.87","jqpo","true"
"397.369999991497","<svg height=""703"" width=""1412""><rect height=""70.3"" width=""70.3""y=""316.35""x=""670.85"" fill=""green""/></svg>","83","stim_present","test","green","middle","html-keyboard-response","206","137833","0.0-3.0-0.2-1.88","jqpo","true"
"373.3700000157114","<svg height=""703"" width=""1412""><rect height=""70.3"" width=""70.3""y=""316.35""x=""1059"" fill=""red""/></svg>","76","stim_present","test","red","right","html-keyboard-response","208","138713","0.0-3.0-0.2-1.89","jqpo","true"
"457.85999999498017","<svg height=""703"" width=""1412""><rect height=""70.3"" width=""70.3""y=""316.35""x=""353"" fill=""green""/></svg>","83","stim_present","test","green","left","html-keyboard-response","210","139675","0.0-3.0-0.2-1.90","jqpo","true"
"376.43999999272637","<svg height=""703"" width=""1412""><rect height=""70.3"" width=""70.3""y=""316.35""x=""1059"" fill=""red""/></svg>","76","stim_present","test","red","right","html-keyboard-response","212","140563","0.0-3.0-0.2-1.91","jqpo","true"
"480.27500000898726","<svg height=""703"" width=""1412""><rect height=""70.3"" width=""70.3""y=""316.35""x=""670.85"" fill=""red""/></svg>","76","stim_present","test","red","middle","html-keyboard-response","214","141559","0.0-3.0-0.2-1.92","jqpo","true"
"401.57499999622814","<svg height=""703"" width=""1412""><rect height=""70.3"" width=""70.3""y=""316.35""x=""1059"" fill=""green""/></svg>","83","stim_present","test","green","right","html-keyboard-response","216","142465","0.0-3.0-0.2-1.93","jqpo","true"
"468.38999999454245","<svg height=""703"" width=""1412""><rect height=""70.3"" width=""70.3""y=""316.35""x=""670.85"" fill=""green""/></svg>","83","stim_present","test","green","middle","html-keyboard-response","218","143438","0.0-3.0-0.2-1.94","jqpo","true"
"501.2099999876227","<svg height=""703"" width=""1412""><rect height=""70.3"" width=""70.3""y=""316.35""x=""353"" fill=""red""/></svg>","76","stim_present","test","red","left","html-keyboard-response","220","144453","0.0-3.0-0.2-1.95","jqpo","true"
"365.9050000132993","<svg height=""703"" width=""1412""><rect height=""70.3"" width=""70.3""y=""316.35""x=""1059"" fill=""green""/></svg>","83","stim_present","test","green","right","html-keyboard-response","222","145336","0.0-3.0-0.2-1.96","jqpo","true"
"371.740000002319","<svg height=""703"" width=""1412""><rect height=""70.3"" width=""70.3""y=""316.35""x=""353"" fill=""green""/></svg>","83","stim_present","test","green","left","html-keyboard-response","224","146220","0.0-3.0-0.2-1.97","jqpo","true"
"390.09999998961575","<svg height=""703"" width=""1412""><rect height=""70.3"" width=""70.3""y=""316.35""x=""1059"" fill=""red""/></svg>","76","stim_present","test","red","right","html-keyboard-response","226","147116","0.0-3.0-0.2-1.98","jqpo","true"
"368.30999999074265","<svg height=""703"" width=""1412""><rect height=""70.3"" width=""70.3""y=""316.35""x=""353"" fill=""red""/></svg>","76","stim_present","test","red","left","html-keyboard-response","228","148001","0.0-3.0-0.2-1.99","jqpo","true"
"402.4149999895599","<svg height=""703"" width=""1412""><rect height=""70.3"" width=""70.3""y=""316.35""x=""670.85"" fill=""red""/></svg>","76","stim_present","test","red","middle","html-keyboard-response","230","148909","0.0-3.0-0.2-1.100","jqpo","true"
"319.1250000090804","<svg height=""703"" width=""1412""><rect height=""70.3"" width=""70.3""y=""316.35""x=""670.85"" fill=""green""/></svg>","76","stim_present","test","green","middle","html-keyboard-response","232","149730","0.0-3.0-0.2-1.101","jqpo","false"
"419.5750000071712","<svg height=""703"" width=""1412""><rect height=""70.3"" width=""70.3""y=""316.35""x=""353"" fill=""green""/></svg>","83","stim_present","test","green","left","html-keyboard-response","234","150658","0.0-3.0-0.2-1.102","jqpo","true"
"407.66000002622604","<svg height=""703"" width=""1412""><rect height=""70.3"" width=""70.3""y=""316.35""x=""1059"" fill=""green""/></svg>","83","stim_present","test","green","right","html-keyboard-response","236","151569","0.0-3.0-0.2-1.103","jqpo","true"
"427.23999998997897","<svg height=""703"" width=""1412""><rect height=""70.3"" width=""70.3""y=""316.35""x=""1059"" fill=""red""/></svg>","76","stim_present","test","red","right","html-keyboard-response","238","152511","0.0-3.0-0.2-1.104","jqpo","true"
"459.07499999157153","<svg height=""703"" width=""1412""><rect height=""70.3"" width=""70.3""y=""316.35""x=""670.85"" fill=""green""/></svg>","83","stim_present","test","green","middle","html-keyboard-response","240","153481","0.0-3.0-0.2-1.105","jqpo","true"
"340.81999998306856","<svg height=""703"" width=""1412""><rect height=""70.3"" width=""70.3""y=""316.35""x=""670.85"" fill=""red""/></svg>","83","stim_present","test","red","middle","html-keyboard-response","242","154334","0.0-3.0-0.2-1.106","jqpo","false"
"458.81999999983236","<svg height=""703"" width=""1412""><rect height=""70.3"" width=""70.3""y=""316.35""x=""353"" fill=""red""/></svg>","76","stim_present","test","red","left","html-keyboard-response","244","155299","0.0-3.0-0.2-1.107","jqpo","true"
"381.8650000030175","<svg height=""703"" width=""1412""><rect height=""70.3"" width=""70.3""y=""316.35""x=""353"" fill=""red""/></svg>","76","stim_present","test","red","left","html-keyboard-response","247","157037","0.0-3.0-0.3-1.108","jqpo","true"
"415.25499999988824","<svg height=""703"" width=""1412""><rect height=""70.3"" width=""70.3""y=""316.35""x=""1059"" fill=""red""/></svg>","76","stim_present","test","red","right","html-keyboard-response","249","157962","0.0-3.0-0.3-1.109","jqpo","true"
"330.454999988433","<svg height=""703"" width=""1412""><rect height=""70.3"" width=""70.3""y=""316.35""x=""353"" fill=""green""/></svg>","83","stim_present","test","green","left","html-keyboard-response","251","158796","0.0-3.0-0.3-1.110","jqpo","true"
"349.1349999967497","<svg height=""703"" width=""1412""><rect height=""70.3"" width=""70.3""y=""316.35""x=""670.85"" fill=""green""/></svg>","83","stim_present","test","green","middle","html-keyboard-response","253","159649","0.0-3.0-0.3-1.111","jqpo","true"
"366.26999999862164","<svg height=""703"" width=""1412""><rect height=""70.3"" width=""70.3""y=""316.35""x=""1059"" fill=""green""/></svg>","76","stim_present","test","green","right","html-keyboard-response","255","160528","0.0-3.0-0.3-1.112","jqpo","false"
"470.7449999987148","<svg height=""703"" width=""1412""><rect height=""70.3"" width=""70.3""y=""316.35""x=""670.85"" fill=""red""/></svg>","76","stim_present","test","red","middle","html-keyboard-response","257","161508","0.0-3.0-0.3-1.113","jqpo","true"
"406.44999998039566","<svg height=""703"" width=""1412""><rect height=""70.3"" width=""70.3""y=""316.35""x=""353"" fill=""red""/></svg>","76","stim_present","test","red","left","html-keyboard-response","259","162418","0.0-3.0-0.3-1.114","jqpo","true"
"382.02000001911074","<svg height=""703"" width=""1412""><rect height=""70.3"" width=""70.3""y=""316.35""x=""353"" fill=""green""/></svg>","83","stim_present","test","green","left","html-keyboard-response","261","163316","0.0-3.0-0.3-1.115","jqpo","true"
"360.0099999748636","<svg height=""703"" width=""1412""><rect height=""70.3"" width=""70.3""y=""316.35""x=""670.85"" fill=""red""/></svg>","76","stim_present","test","red","middle","html-keyboard-response","263","164187","0.0-3.0-0.3-1.116","jqpo","true"
"345.59499999159016","<svg height=""703"" width=""1412""><rect height=""70.3"" width=""70.3""y=""316.35""x=""1059"" fill=""green""/></svg>","83","stim_present","test","green","right","html-keyboard-response","265","165045","0.0-3.0-0.3-1.117","jqpo","true"
"392.96500000637025","<svg height=""703"" width=""1412""><rect height=""70.3"" width=""70.3""y=""316.35""x=""670.85"" fill=""green""/></svg>","83","stim_present","test","green","middle","html-keyboard-response","267","165954","0.0-3.0-0.3-1.118","jqpo","true"
"390.11500001652166","<svg height=""703"" width=""1412""><rect height=""70.3"" width=""70.3""y=""316.35""x=""1059"" fill=""red""/></svg>","76","stim_present","test","red","right","html-keyboard-response","269","166849","0.0-3.0-0.3-1.119","jqpo","true"
"337.6200000056997","<svg height=""703"" width=""1412""><rect height=""70.3"" width=""70.3""y=""316.35""x=""670.85"" fill=""green""/></svg>","83","stim_present","test","green","middle","html-keyboard-response","271","167691","0.0-3.0-0.3-1.120","jqpo","true"
"324.1450000205077","<svg height=""703"" width=""1412""><rect height=""70.3"" width=""70.3""y=""316.35""x=""353"" fill=""green""/></svg>","83","stim_present","test","green","left","html-keyboard-response","273","168520","0.0-3.0-0.3-1.121","jqpo","true"
"369.925000006333","<svg height=""703"" width=""1412""><rect height=""70.3"" width=""70.3""y=""316.35""x=""353"" fill=""red""/></svg>","83","stim_present","test","red","left","html-keyboard-response","275","169397","0.0-3.0-0.3-1.122","jqpo","false"
"383.6500000033993","<svg height=""703"" width=""1412""><rect height=""70.3"" width=""70.3""y=""316.35""x=""1059"" fill=""red""/></svg>","76","stim_present","test","red","right","html-keyboard-response","277","170284","0.0-3.0-0.3-1.123","jqpo","true"
"413.34999998798594","<svg height=""703"" width=""1412""><rect height=""70.3"" width=""70.3""y=""316.35""x=""1059"" fill=""green""/></svg>","83","stim_present","test","green","right","html-keyboard-response","279","171206","0.0-3.0-0.3-1.124","jqpo","true"
"416.83000000193715","<svg height=""703"" width=""1412""><rect height=""70.3"" width=""70.3""y=""316.35""x=""670.85"" fill=""red""/></svg>","76","stim_present","test","red","middle","html-keyboard-response","281","172133","0.0-3.0-0.3-1.125","jqpo","true"
"373.78999998327345","<svg height=""703"" width=""1412""><rect height=""70.3"" width=""70.3""y=""316.35""x=""1059"" fill=""red""/></svg>","76","stim_present","test","red","right","html-keyboard-response","283","173011","0.0-3.0-0.3-1.126","jqpo","true"
"420.9600000176579","<svg height=""703"" width=""1412""><rect height=""70.3"" width=""70.3""y=""316.35""x=""670.85"" fill=""green""/></svg>","83","stim_present","test","green","middle","html-keyboard-response","285","173940","0.0-3.0-0.3-1.127","jqpo","true"
"448.52000000537373","<svg height=""703"" width=""1412""><rect height=""70.3"" width=""70.3""y=""316.35""x=""1059"" fill=""green""/></svg>","83","stim_present","test","green","right","html-keyboard-response","287","174905","0.0-3.0-0.3-1.128","jqpo","true"
"424.99999998835847","<svg height=""703"" width=""1412""><rect height=""70.3"" width=""70.3""y=""316.35""x=""670.85"" fill=""red""/></svg>","76","stim_present","test","red","middle","html-keyboard-response","289","175840","0.0-3.0-0.3-1.129","jqpo","true"
"371.0599999758415","<svg height=""703"" width=""1412""><rect height=""70.3"" width=""70.3""y=""316.35""x=""353"" fill=""green""/></svg>","83","stim_present","test","green","left","html-keyboard-response","291","176722","0.0-3.0-0.3-1.130","jqpo","true"
"490.53000001003966","<svg height=""703"" width=""1412""><rect height=""70.3"" width=""70.3""y=""316.35""x=""353"" fill=""red""/></svg>","76","stim_present","test","red","left","html-keyboard-response","293","177721","0.0-3.0-0.3-1.131","jqpo","true"
"345.96000000601634","<svg height=""703"" width=""1412""><rect height=""70.3"" width=""70.3""y=""316.35""x=""353"" fill=""red""/></svg>","76","stim_present","test","red","left","html-keyboard-response","295","178574","0.0-3.0-0.3-1.132","jqpo","true"
"430.71499999496154","<svg height=""703"" width=""1412""><rect height=""70.3"" width=""70.3""y=""316.35""x=""353"" fill=""green""/></svg>","83","stim_present","test","green","left","html-keyboard-response","297","179520","0.0-3.0-0.3-1.133","jqpo","true"
"403.68000001762994","<svg height=""703"" width=""1412""><rect height=""70.3"" width=""70.3""y=""316.35""x=""1059"" fill=""red""/></svg>","76","stim_present","test","red","right","html-keyboard-response","299","180432","0.0-3.0-0.3-1.134","jqpo","true"
"393.0500000133179","<svg height=""703"" width=""1412""><rect height=""70.3"" width=""70.3""y=""316.35""x=""1059"" fill=""green""/></svg>","83","stim_present","test","green","right","html-keyboard-response","301","181330","0.0-3.0-0.3-1.135","jqpo","true"
"422.950000007404","<svg height=""703"" width=""1412""><rect height=""70.3"" width=""70.3""y=""316.35""x=""670.85"" fill=""red""/></svg>","76","stim_present","test","red","middle","html-keyboard-response","303","182265","0.0-3.0-0.3-1.136","jqpo","true"
"474.90999998990446","<svg height=""703"" width=""1412""><rect height=""70.3"" width=""70.3""y=""316.35""x=""670.85"" fill=""green""/></svg>","83","stim_present","test","green","middle","html-keyboard-response","305","183251","0.0-3.0-0.3-1.137","jqpo","true"
"270.92999999877065","<svg height=""703"" width=""1412""><rect height=""70.3"" width=""70.3""y=""316.35""x=""670.85"" fill=""green""/></svg>","76","stim_present","test","green","middle","html-keyboard-response","307","184034","0.0-3.0-0.3-1.138","jqpo","false"
"369.19999998644926","<svg height=""703"" width=""1412""><rect height=""70.3"" width=""70.3""y=""316.35""x=""353"" fill=""red""/></svg>","83","stim_present","test","red","left","html-keyboard-response","309","184916","0.0-3.0-0.3-1.139","jqpo","false"
"384.28999998723157","<svg height=""703"" width=""1412""><rect height=""70.3"" width=""70.3""y=""316.35""x=""670.85"" fill=""red""/></svg>","76","stim_present","test","red","middle","html-keyboard-response","311","185803","0.0-3.0-0.3-1.140","jqpo","true"
"431.3350000011269","<svg height=""703"" width=""1412""><rect height=""70.3"" width=""70.3""y=""316.35""x=""353"" fill=""green""/></svg>","83","stim_present","test","green","left","html-keyboard-response","313","186749","0.0-3.0-0.3-1.141","jqpo","true"
"389.0550000069197","<svg height=""703"" width=""1412""><rect height=""70.3"" width=""70.3""y=""316.35""x=""1059"" fill=""red""/></svg>","76","stim_present","test","red","right","html-keyboard-response","315","187645","0.0-3.0-0.3-1.142","jqpo","true"
"448.85999997495674","<svg height=""703"" width=""1412""><rect height=""70.3"" width=""70.3""y=""316.35""x=""1059"" fill=""green""/></svg>","83","stim_present","test","green","right","html-keyboard-response","317","188599","0.0-3.0-0.3-1.143","jqpo","true"
