"rt","stimulus","key_press","type","part","color","position","trial_type","trial_index","time_elapsed","internal_node_id","subject","accuracy"
"533.1050000095274","<svg height=""683"" width=""1389""><rect height=""68.3"" width=""68.3""y=""307.35""x=""347.25"" fill=""green""/></svg>","83","stim_present","training","green","left","html-keyboard-response","3","111545","0.0-2.0-0.0-1.0","pb39","true"
"777.090000017779","<svg height=""683"" width=""1389""><rect height=""68.3"" width=""68.3""y=""307.35""x=""660.35"" fill=""green""/></svg>","83","stim_present","training","green","middle","html-keyboard-response","5","112828","0.0-2.0-0.0-1.1","pb39","true"
"543.7100000272039","<svg height=""683"" width=""1389""><rect height=""68.3"" width=""68.3""y=""307.35""x=""347.25"" fill=""red""/></svg>","76","stim_present","training","red","left","html-keyboard-response","7","113878","0.0-2.0-0.0-1.2","pb39","true"
"707.0099999837112","<svg height=""683"" width=""1389""><rect height=""68.3"" width=""68.3""y=""307.35""x=""660.35"" fill=""red""/></svg>","76","stim_present","training","red","middle","html-keyboard-response","9","115091","0.0-2.0-0.0-1.3","pb39","true"
"676.0099999955855","<svg height=""683"" width=""1389""><rect height=""68.3"" width=""68.3""y=""307.35""x=""1041.75"" fill=""green""/></svg>","83","stim_present","training","green","right","html-keyboard-response","11","116273","0.0-2.0-0.0-1.4","pb39","true"
"497.0749999920372","<svg height=""683"" width=""1389""><rect height=""68.3"" width=""68.3""y=""307.35""x=""1041.75"" fill=""red""/></svg>","76","stim_present","training","red","right","html-keyboard-response","13","117276","0.0-2.0-0.0-1.5","pb39","true"
"446.62499998230487","<svg height=""683"" width=""1389""><rect height=""68.3"" width=""68.3""y=""307.35""x=""1041.75"" fill=""red""/></svg>","76","stim_present","training","red","right","html-keyboard-response","15","118226","0.0-2.0-0.0-1.6","pb39","true"
"733.0950000032317","<svg height=""683"" width=""1389""><rect height=""68.3"" width=""68.3""y=""307.35""x=""660.35"" fill=""green""/></svg>","83","stim_present","training","green","middle","html-keyboard-response","17","119465","0.0-2.0-0.0-1.7","pb39","true"
"663.7399999890476","<svg height=""683"" width=""1389""><rect height=""68.3"" width=""68.3""y=""307.35""x=""347.25"" fill=""green""/></svg>","83","stim_present","training","green","left","html-keyboard-response","19","120635","0.0-2.0-0.0-1.8","pb39","true"
"550.7349999970756","<svg height=""683"" width=""1389""><rect height=""68.3"" width=""68.3""y=""307.35""x=""347.25"" fill=""red""/></svg>","76","stim_present","training","red","left","html-keyboard-response","21","121689","0.0-2.0-0.0-1.9","pb39","true"
"659.944999992149","<svg height=""683"" width=""1389""><rect height=""68.3"" width=""68.3""y=""307.35""x=""660.35"" fill=""red""/></svg>","76","stim_present","training","red","middle","html-keyboard-response","23","122854","0.0-2.0-0.0-1.10","pb39","true"
"621.8349999981001","<svg height=""683"" width=""1389""><rect height=""68.3"" width=""68.3""y=""307.35""x=""1041.75"" fill=""green""/></svg>","83","stim_present","training","green","right","html-keyboard-response","25","123979","0.0-2.0-0.0-1.11","pb39","true"
"515.7550000003539","<svg height=""683"" width=""1389""><rect height=""68.3"" width=""68.3""y=""307.35""x=""347.25"" fill=""red""/></svg>","76","stim_present","test","red","left","html-keyboard-response","28","131344","0.0-3.0-0.0-1.0","pb39","true"
"454.6299999929033","<svg height=""683"" width=""1389""><rect height=""68.3"" width=""68.3""y=""307.35""x=""660.35"" fill=""red""/></svg>","76","stim_present","test","red","middle","html-keyboard-response","30","132301","0.0-3.0-0.0-1.1","pb39","true"
"379.704999999376","<svg height=""683"" width=""1389""><rect height=""68.3"" width=""68.3""y=""307.35""x=""1041.75"" fill=""green""/></svg>","83","stim_present","test","green","right","html-keyboard-response","32","133185","0.0-3.0-0.0-1.2","pb39","true"
"468.9549999893643","<svg height=""683"" width=""1389""><rect height=""68.3"" width=""68.3""y=""307.35""x=""660.35"" fill=""green""/></svg>","83","stim_present","test","green","middle","html-keyboard-response","34","134159","0.0-3.0-0.0-1.3","pb39","true"
"364.9149999837391","<svg height=""683"" width=""1389""><rect height=""68.3"" width=""68.3""y=""307.35""x=""1041.75"" fill=""red""/></svg>","76","stim_present","test","red","right","html-keyboard-response","36","135030","0.0-3.0-0.0-1.4","pb39","true"
"320.0350000115577","<svg height=""683"" width=""1389""><rect height=""68.3"" width=""68.3""y=""307.35""x=""347.25"" fill=""green""/></svg>","83","stim_present","test","green","left","html-keyboard-response","38","135855","0.0-3.0-0.0-1.5","pb39","true"
"360.3750000183936","<svg height=""683"" width=""1389""><rect height=""68.3"" width=""68.3""y=""307.35""x=""660.35"" fill=""red""/></svg>","76","stim_present","test","red","middle","html-keyboard-response","40","136720","0.0-3.0-0.0-1.6","pb39","true"
"323.050000006333","<svg height=""683"" width=""1389""><rect height=""68.3"" width=""68.3""y=""307.35""x=""347.25"" fill=""green""/></svg>","83","stim_present","test","green","left","html-keyboard-response","42","137550","0.0-3.0-0.0-1.7","pb39","true"
"458.9849999756552","<svg height=""683"" width=""1389""><rect height=""68.3"" width=""68.3""y=""307.35""x=""347.25"" fill=""red""/></svg>","83","stim_present","test","red","left","html-keyboard-response","44","138514","0.0-3.0-0.0-1.8","pb39","false"
"687.0150000031572","<svg height=""683"" width=""1389""><rect height=""68.3"" width=""68.3""y=""307.35""x=""1041.75"" fill=""green""/></svg>","83","stim_present","test","green","right","html-keyboard-response","46","139707","0.0-3.0-0.0-1.9","pb39","true"
"502.61999998474494","<svg height=""683"" width=""1389""><rect height=""68.3"" width=""68.3""y=""307.35""x=""660.35"" fill=""green""/></svg>","83","stim_present","test","green","middle","html-keyboard-response","48","140712","0.0-3.0-0.0-1.10","pb39","true"
"365.189999982249","<svg height=""683"" width=""1389""><rect height=""68.3"" width=""68.3""y=""307.35""x=""1041.75"" fill=""red""/></svg>","76","stim_present","test","red","right","html-keyboard-response","50","141582","0.0-3.0-0.0-1.11","pb39","true"
"342.79500000411645","<svg height=""683"" width=""1389""><rect height=""68.3"" width=""68.3""y=""307.35""x=""1041.75"" fill=""red""/></svg>","76","stim_present","test","red","right","html-keyboard-response","52","142430","0.0-3.0-0.0-1.12","pb39","true"
"305.93500001123175","<svg height=""683"" width=""1389""><rect height=""68.3"" width=""68.3""y=""307.35""x=""660.35"" fill=""red""/></svg>","76","stim_present","test","red","middle","html-keyboard-response","54","143242","0.0-3.0-0.0-1.13","pb39","true"
"585.159999987809","<svg height=""683"" width=""1389""><rect height=""68.3"" width=""68.3""y=""307.35""x=""1041.75"" fill=""green""/></svg>","83","stim_present","test","green","right","html-keyboard-response","56","144333","0.0-3.0-0.0-1.14","pb39","true"
"477.7999999932945","<svg height=""683"" width=""1389""><rect height=""68.3"" width=""68.3""y=""307.35""x=""347.25"" fill=""green""/></svg>","83","stim_present","test","green","left","html-keyboard-response","58","145317","0.0-3.0-0.0-1.15","pb39","true"
"428.0600000056438","<svg height=""683"" width=""1389""><rect height=""68.3"" width=""68.3""y=""307.35""x=""660.35"" fill=""green""/></svg>","83","stim_present","test","green","middle","html-keyboard-response","60","146248","0.0-3.0-0.0-1.16","pb39","true"
"328.2900000049267","<svg height=""683"" width=""1389""><rect height=""68.3"" width=""68.3""y=""307.35""x=""347.25"" fill=""red""/></svg>","83","stim_present","test","red","left","html-keyboard-response","62","147078","0.0-3.0-0.0-1.17","pb39","false"
"461.9049999746494","<svg height=""683"" width=""1389""><rect height=""68.3"" width=""68.3""y=""307.35""x=""660.35"" fill=""red""/></svg>","76","stim_present","test","red","middle","html-keyboard-response","64","148046","0.0-3.0-0.0-1.18","pb39","true"
"363.10499999672174","<svg height=""683"" width=""1389""><rect height=""68.3"" width=""68.3""y=""307.35""x=""1041.75"" fill=""red""/></svg>","76","stim_present","test","red","right","html-keyboard-response","66","148915","0.0-3.0-0.0-1.19","pb39","true"
"375.5000000237487","<svg height=""683"" width=""1389""><rect height=""68.3"" width=""68.3""y=""307.35""x=""660.35"" fill=""green""/></svg>","83","stim_present","test","green","middle","html-keyboard-response","68","149797","0.0-3.0-0.0-1.20","pb39","true"
"449.15999998920597","<svg height=""683"" width=""1389""><rect height=""68.3"" width=""68.3""y=""307.35""x=""347.25"" fill=""red""/></svg>","76","stim_present","test","red","left","html-keyboard-response","70","150752","0.0-3.0-0.0-1.21","pb39","true"
"491.6450000018813","<svg height=""683"" width=""1389""><rect height=""68.3"" width=""68.3""y=""307.35""x=""1041.75"" fill=""green""/></svg>","83","stim_present","test","green","right","html-keyboard-response","72","151750","0.0-3.0-0.0-1.22","pb39","true"
"381.1349999741651","<svg height=""683"" width=""1389""><rect height=""68.3"" width=""68.3""y=""307.35""x=""347.25"" fill=""green""/></svg>","76","stim_present","test","green","left","html-keyboard-response","74","152635","0.0-3.0-0.0-1.23","pb39","false"
"511.02000000537373","<svg height=""683"" width=""1389""><rect height=""68.3"" width=""68.3""y=""307.35""x=""347.25"" fill=""green""/></svg>","83","stim_present","test","green","left","html-keyboard-response","76","153649","0.0-3.0-0.0-1.24","pb39","true"
"1222.7549999952316","<svg height=""683"" width=""1389""><rect height=""68.3"" width=""68.3""y=""307.35""x=""660.35"" fill=""green""/></svg>","83","stim_present","test","green","middle","html-keyboard-response","78","155376","0.0-3.0-0.0-1.25","pb39","true"
"601.5250000054948","<svg height=""683"" width=""1389""><rect height=""68.3"" width=""68.3""y=""307.35""x=""347.25"" fill=""red""/></svg>","76","stim_present","test","red","left","html-keyboard-response","80","156480","0.0-3.0-0.0-1.26","pb39","true"
"466.0600000061095","<svg height=""683"" width=""1389""><rect height=""68.3"" width=""68.3""y=""307.35""x=""1041.75"" fill=""green""/></svg>","76","stim_present","test","green","right","html-keyboard-response","82","157452","0.0-3.0-0.0-1.27","pb39","false"
"1073.2549999956973","<svg height=""683"" width=""1389""><rect height=""68.3"" width=""68.3""y=""307.35""x=""1041.75"" fill=""red""/></svg>","76","stim_present","test","red","right","html-keyboard-response","84","159029","0.0-3.0-0.0-1.28","pb39","true"
"673.9250000100583","<svg height=""683"" width=""1389""><rect height=""68.3"" width=""68.3""y=""307.35""x=""660.35"" fill=""red""/></svg>","76","stim_present","test","red","middle","html-keyboard-response","86","160209","0.0-3.0-0.0-1.29","pb39","true"
"530.7849999808241","<svg height=""683"" width=""1389""><rect height=""68.3"" width=""68.3""y=""307.35""x=""660.35"" fill=""red""/></svg>","76","stim_present","test","red","middle","html-keyboard-response","88","161246","0.0-3.0-0.0-1.30","pb39","true"
"544.8650000034831","<svg height=""683"" width=""1389""><rect height=""68.3"" width=""68.3""y=""307.35""x=""347.25"" fill=""green""/></svg>","83","stim_present","test","green","left","html-keyboard-response","90","162297","0.0-3.0-0.0-1.31","pb39","true"
"689.2099999822676","<svg height=""683"" width=""1389""><rect height=""68.3"" width=""68.3""y=""307.35""x=""1041.75"" fill=""red""/></svg>","76","stim_present","test","red","right","html-keyboard-response","92","163492","0.0-3.0-0.0-1.32","pb39","true"
"688.0999999993946","<svg height=""683"" width=""1389""><rect height=""68.3"" width=""68.3""y=""307.35""x=""347.25"" fill=""red""/></svg>","76","stim_present","test","red","left","html-keyboard-response","94","164686","0.0-3.0-0.0-1.33","pb39","true"
"491.75499999546446","<svg height=""683"" width=""1389""><rect height=""68.3"" width=""68.3""y=""307.35""x=""660.35"" fill=""green""/></svg>","83","stim_present","test","green","middle","html-keyboard-response","96","165684","0.0-3.0-0.0-1.34","pb39","true"
"934.5350000075996","<svg height=""683"" width=""1389""><rect height=""68.3"" width=""68.3""y=""307.35""x=""1041.75"" fill=""green""/></svg>","83","stim_present","test","green","right","html-keyboard-response","98","167122","0.0-3.0-0.0-1.35","pb39","true"
"440.3949999832548","<svg height=""683"" width=""1389""><rect height=""68.3"" width=""68.3""y=""307.35""x=""660.35"" fill=""red""/></svg>","76","stim_present","test","red","middle","html-keyboard-response","101","171916","0.0-3.0-0.1-1.36","pb39","true"
"469.07500000088476","<svg height=""683"" width=""1389""><rect height=""68.3"" width=""68.3""y=""307.35""x=""660.35"" fill=""green""/></svg>","83","stim_present","test","green","middle","html-keyboard-response","103","172890","0.0-3.0-0.1-1.37","pb39","true"
"719.1149999853224","<svg height=""683"" width=""1389""><rect height=""68.3"" width=""68.3""y=""307.35""x=""1041.75"" fill=""green""/></svg>","83","stim_present","test","green","right","html-keyboard-response","105","174116","0.0-3.0-0.1-1.38","pb39","true"
"423.4299999952782","<svg height=""683"" width=""1389""><rect height=""68.3"" width=""68.3""y=""307.35""x=""347.25"" fill=""green""/></svg>","83","stim_present","test","green","left","html-keyboard-response","107","175045","0.0-3.0-0.1-1.39","pb39","true"
"514.3100000277627","<svg height=""683"" width=""1389""><rect height=""68.3"" width=""68.3""y=""307.35""x=""347.25"" fill=""red""/></svg>","76","stim_present","test","red","left","html-keyboard-response","109","176062","0.0-3.0-0.1-1.40","pb39","true"
"326.63999998476356","<svg height=""683"" width=""1389""><rect height=""68.3"" width=""68.3""y=""307.35""x=""1041.75"" fill=""red""/></svg>","76","stim_present","test","red","right","html-keyboard-response","111","176893","0.0-3.0-0.1-1.41","pb39","true"
"387.17000000178814","<svg height=""683"" width=""1389""><rect height=""68.3"" width=""68.3""y=""307.35""x=""1041.75"" fill=""red""/></svg>","76","stim_present","test","red","right","html-keyboard-response","113","177786","0.0-3.0-0.1-1.42","pb39","true"
"343.9300000027288","<svg height=""683"" width=""1389""><rect height=""68.3"" width=""68.3""y=""307.35""x=""347.25"" fill=""green""/></svg>","83","stim_present","test","green","left","html-keyboard-response","115","178636","0.0-3.0-0.1-1.43","pb39","true"
"406.3650000025518","<svg height=""683"" width=""1389""><rect height=""68.3"" width=""68.3""y=""307.35""x=""347.25"" fill=""red""/></svg>","83","stim_present","test","red","left","html-keyboard-response","117","179548","0.0-3.0-0.1-1.44","pb39","false"
"603.0899999896064","<svg height=""683"" width=""1389""><rect height=""68.3"" width=""68.3""y=""307.35""x=""660.35"" fill=""red""/></svg>","83","stim_present","test","red","middle","html-keyboard-response","119","180653","0.0-3.0-0.1-1.45","pb39","false"
"1026.2649999931455","<svg height=""683"" width=""1389""><rect height=""68.3"" width=""68.3""y=""307.35""x=""1041.75"" fill=""green""/></svg>","83","stim_present","test","green","right","html-keyboard-response","121","182183","0.0-3.0-0.1-1.46","pb39","true"
"706.9949999859091","<svg height=""683"" width=""1389""><rect height=""68.3"" width=""68.3""y=""307.35""x=""660.35"" fill=""green""/></svg>","83","stim_present","test","green","middle","html-keyboard-response","123","183396","0.0-3.0-0.1-1.47","pb39","true"
"437.6150000025518","<svg height=""683"" width=""1389""><rect height=""68.3"" width=""68.3""y=""307.35""x=""347.25"" fill=""green""/></svg>","83","stim_present","test","green","left","html-keyboard-response","125","184340","0.0-3.0-0.1-1.48","pb39","true"
"473.5649999929592","<svg height=""683"" width=""1389""><rect height=""68.3"" width=""68.3""y=""307.35""x=""1041.75"" fill=""green""/></svg>","83","stim_present","test","green","right","html-keyboard-response","127","185319","0.0-3.0-0.1-1.49","pb39","true"
"338.4549999900628","<svg height=""683"" width=""1389""><rect height=""68.3"" width=""68.3""y=""307.35""x=""1041.75"" fill=""red""/></svg>","76","stim_present","test","red","right","html-keyboard-response","129","186160","0.0-3.0-0.1-1.50","pb39","true"
"500.1349999802187","<svg height=""683"" width=""1389""><rect height=""68.3"" width=""68.3""y=""307.35""x=""660.35"" fill=""green""/></svg>","83","stim_present","test","green","middle","html-keyboard-response","131","187163","0.0-3.0-0.1-1.51","pb39","true"
"489.0099999902304","<svg height=""683"" width=""1389""><rect height=""68.3"" width=""68.3""y=""307.35""x=""660.35"" fill=""red""/></svg>","76","stim_present","test","red","middle","html-keyboard-response","133","188158","0.0-3.0-0.1-1.52","pb39","true"
"589.3799999903422","<svg height=""683"" width=""1389""><rect height=""68.3"" width=""68.3""y=""307.35""x=""347.25"" fill=""red""/></svg>","76","stim_present","test","red","left","html-keyboard-response","135","189249","0.0-3.0-0.1-1.53","pb39","true"
"380.0700000138022","<svg height=""683"" width=""1389""><rect height=""68.3"" width=""68.3""y=""307.35""x=""347.25"" fill=""red""/></svg>","76","stim_present","test","red","left","html-keyboard-response","137","190132","0.0-3.0-0.1-1.54","pb39","true"
"414.10499997437","<svg height=""683"" width=""1389""><rect height=""68.3"" width=""68.3""y=""307.35""x=""347.25"" fill=""green""/></svg>","83","stim_present","test","green","left","html-keyboard-response","139","191048","0.0-3.0-0.1-1.55","pb39","true"
"315.6699999817647","<svg height=""683"" width=""1389""><rect height=""68.3"" width=""68.3""y=""307.35""x=""660.35"" fill=""green""/></svg>","83","stim_present","test","green","middle","html-keyboard-response","141","191866","0.0-3.0-0.1-1.56","pb39","true"
"422.41999998805113","<svg height=""683"" width=""1389""><rect height=""68.3"" width=""68.3""y=""307.35""x=""1041.75"" fill=""red""/></svg>","76","stim_present","test","red","right","html-keyboard-response","143","192791","0.0-3.0-0.1-1.57","pb39","true"
"401.1600000085309","<svg height=""683"" width=""1389""><rect height=""68.3"" width=""68.3""y=""307.35""x=""660.35"" fill=""red""/></svg>","76","stim_present","test","red","middle","html-keyboard-response","145","193698","0.0-3.0-0.1-1.58","pb39","true"
"380.959999980405","<svg height=""683"" width=""1389""><rect height=""68.3"" width=""68.3""y=""307.35""x=""1041.75"" fill=""green""/></svg>","83","stim_present","test","green","right","html-keyboard-response","147","194583","0.0-3.0-0.1-1.59","pb39","true"
"487.7050000068266","<svg height=""683"" width=""1389""><rect height=""68.3"" width=""68.3""y=""307.35""x=""347.25"" fill=""red""/></svg>","83","stim_present","test","red","left","html-keyboard-response","149","195573","0.0-3.0-0.1-1.60","pb39","false"
"677.9300000052899","<svg height=""683"" width=""1389""><rect height=""68.3"" width=""68.3""y=""307.35""x=""1041.75"" fill=""red""/></svg>","76","stim_present","test","red","right","html-keyboard-response","151","196757","0.0-3.0-0.1-1.61","pb39","true"
"542.9650000005495","<svg height=""683"" width=""1389""><rect height=""68.3"" width=""68.3""y=""307.35""x=""1041.75"" fill=""green""/></svg>","83","stim_present","test","green","right","html-keyboard-response","153","197806","0.0-3.0-0.1-1.62","pb39","true"
"874.4449999940116","<svg height=""683"" width=""1389""><rect height=""68.3"" width=""68.3""y=""307.35""x=""347.25"" fill=""green""/></svg>","83","stim_present","test","green","left","html-keyboard-response","155","199186","0.0-3.0-0.1-1.63","pb39","true"
"446.95499999215826","<svg height=""683"" width=""1389""><rect height=""68.3"" width=""68.3""y=""307.35""x=""660.35"" fill=""red""/></svg>","76","stim_present","test","red","middle","html-keyboard-response","157","200137","0.0-3.0-0.1-1.64","pb39","true"
"637.8449999901932","<svg height=""683"" width=""1389""><rect height=""68.3"" width=""68.3""y=""307.35""x=""660.35"" fill=""green""/></svg>","83","stim_present","test","green","middle","html-keyboard-response","159","201281","0.0-3.0-0.1-1.65","pb39","true"
"1288.1150000030175","<svg height=""683"" width=""1389""><rect height=""68.3"" width=""68.3""y=""307.35""x=""347.25"" fill=""red""/></svg>","76","stim_present","test","red","left","html-keyboard-response","161","203075","0.0-3.0-0.1-1.66","pb39","true"
"542.090000002645","<svg height=""683"" width=""1389""><rect height=""68.3"" width=""68.3""y=""307.35""x=""1041.75"" fill=""red""/></svg>","76","stim_present","test","red","right","html-keyboard-response","163","204118","0.0-3.0-0.1-1.67","pb39","true"
"499.11999999312684","<svg height=""683"" width=""1389""><rect height=""68.3"" width=""68.3""y=""307.35""x=""347.25"" fill=""green""/></svg>","83","stim_present","test","green","left","html-keyboard-response","165","205123","0.0-3.0-0.1-1.68","pb39","true"
"1028.8599999912549","<svg height=""683"" width=""1389""><rect height=""68.3"" width=""68.3""y=""307.35""x=""1041.75"" fill=""green""/></svg>","83","stim_present","test","green","right","html-keyboard-response","167","206658","0.0-3.0-0.1-1.69","pb39","true"
"737.0999999984633","<svg height=""683"" width=""1389""><rect height=""68.3"" width=""68.3""y=""307.35""x=""660.35"" fill=""red""/></svg>","76","stim_present","test","red","middle","html-keyboard-response","169","207901","0.0-3.0-0.1-1.70","pb39","true"
"489.3900000024587","<svg height=""683"" width=""1389""><rect height=""68.3"" width=""68.3""y=""307.35""x=""660.35"" fill=""green""/></svg>","83","stim_present","test","green","middle","html-keyboard-response","171","208896","0.0-3.0-0.1-1.71","pb39","true"
"585.9749999945052","<svg height=""683"" width=""1389""><rect height=""68.3"" width=""68.3""y=""307.35""x=""1041.75"" fill=""green""/></svg>","83","stim_present","test","green","right","html-keyboard-response","174","212704","0.0-3.0-0.2-1.72","pb39","true"
"382.1600000082981","<svg height=""683"" width=""1389""><rect height=""68.3"" width=""68.3""y=""307.35""x=""1041.75"" fill=""red""/></svg>","76","stim_present","test","red","right","html-keyboard-response","176","213592","0.0-3.0-0.2-1.73","pb39","true"
"691.0350000252947","<svg height=""683"" width=""1389""><rect height=""68.3"" width=""68.3""y=""307.35""x=""660.35"" fill=""green""/></svg>","83","stim_present","test","green","middle","html-keyboard-response","178","214789","0.0-3.0-0.2-1.74","pb39","true"
"575.2649999922141","<svg height=""683"" width=""1389""><rect height=""68.3"" width=""68.3""y=""307.35""x=""660.35"" fill=""red""/></svg>","76","stim_present","test","red","middle","html-keyboard-response","180","215870","0.0-3.0-0.2-1.75","pb39","true"
"372.13999999221414","<svg height=""683"" width=""1389""><rect height=""68.3"" width=""68.3""y=""307.35""x=""347.25"" fill=""green""/></svg>","83","stim_present","test","green","left","html-keyboard-response","182","216748","0.0-3.0-0.2-1.76","pb39","true"
"592.7099999971688","<svg height=""683"" width=""1389""><rect height=""68.3"" width=""68.3""y=""307.35""x=""347.25"" fill=""red""/></svg>","76","stim_present","test","red","left","html-keyboard-response","184","217848","0.0-3.0-0.2-1.77","pb39","true"
"473.72499998891726","<svg height=""683"" width=""1389""><rect height=""68.3"" width=""68.3""y=""307.35""x=""1041.75"" fill=""green""/></svg>","83","stim_present","test","green","right","html-keyboard-response","186","218825","0.0-3.0-0.2-1.78","pb39","true"
"597.8099999774713","<svg height=""683"" width=""1389""><rect height=""68.3"" width=""68.3""y=""307.35""x=""1041.75"" fill=""red""/></svg>","76","stim_present","test","red","right","html-keyboard-response","188","219929","0.0-3.0-0.2-1.79","pb39","true"
"378.3199999888893","<svg height=""683"" width=""1389""><rect height=""68.3"" width=""68.3""y=""307.35""x=""347.25"" fill=""green""/></svg>","83","stim_present","test","green","left","html-keyboard-response","190","220809","0.0-3.0-0.2-1.80","pb39","true"
"358.14500000560656","<svg height=""683"" width=""1389""><rect height=""68.3"" width=""68.3""y=""307.35""x=""660.35"" fill=""red""/></svg>","76","stim_present","test","red","middle","html-keyboard-response","192","221673","0.0-3.0-0.2-1.81","pb39","true"
"883.2750000001397","<svg height=""683"" width=""1389""><rect height=""68.3"" width=""68.3""y=""307.35""x=""347.25"" fill=""red""/></svg>","76","stim_present","test","red","left","html-keyboard-response","194","223061","0.0-3.0-0.2-1.82","pb39","true"
"477.95999998925254","<svg height=""683"" width=""1389""><rect height=""68.3"" width=""68.3""y=""307.35""x=""660.35"" fill=""green""/></svg>","83","stim_present","test","green","middle","html-keyboard-response","196","224042","0.0-3.0-0.2-1.83","pb39","true"
"1481.3900000008289","<svg height=""683"" width=""1389""><rect height=""68.3"" width=""68.3""y=""307.35""x=""1041.75"" fill=""red""/></svg>","76","stim_present","test","red","right","html-keyboard-response","198","226029","0.0-3.0-0.2-1.84","pb39","true"
"876.3299999991432","<svg height=""683"" width=""1389""><rect height=""68.3"" width=""68.3""y=""307.35""x=""347.25"" fill=""red""/></svg>","76","stim_present","test","red","left","html-keyboard-response","200","227411","0.0-3.0-0.2-1.85","pb39","true"
"532.1449999755714","<svg height=""683"" width=""1389""><rect height=""68.3"" width=""68.3""y=""307.35""x=""1041.75"" fill=""green""/></svg>","83","stim_present","test","green","right","html-keyboard-response","202","228445","0.0-3.0-0.2-1.86","pb39","true"
"489.0099999902304","<svg height=""683"" width=""1389""><rect height=""68.3"" width=""68.3""y=""307.35""x=""660.35"" fill=""red""/></svg>","76","stim_present","test","red","middle","html-keyboard-response","204","229440","0.0-3.0-0.2-1.87","pb39","true"
"330.8950000209734","<svg height=""683"" width=""1389""><rect height=""68.3"" width=""68.3""y=""307.35""x=""347.25"" fill=""green""/></svg>","83","stim_present","test","green","left","html-keyboard-response","206","230277","0.0-3.0-0.2-1.88","pb39","true"
"380.06999998469837","<svg height=""683"" width=""1389""><rect height=""68.3"" width=""68.3""y=""307.35""x=""660.35"" fill=""green""/></svg>","76","stim_present","test","green","middle","html-keyboard-response","208","231162","0.0-3.0-0.2-1.89","pb39","false"
"341.18499999749474","<svg height=""683"" width=""1389""><rect height=""68.3"" width=""68.3""y=""307.35""x=""660.35"" fill=""green""/></svg>","76","stim_present","test","green","middle","html-keyboard-response","210","232009","0.0-3.0-0.2-1.90","pb39","false"
"475.1799999794457","<svg height=""683"" width=""1389""><rect height=""68.3"" width=""68.3""y=""307.35""x=""347.25"" fill=""red""/></svg>","76","stim_present","test","red","left","html-keyboard-response","212","232990","0.0-3.0-0.2-1.91","pb39","true"
"584.7650000068825","<svg height=""683"" width=""1389""><rect height=""68.3"" width=""68.3""y=""307.35""x=""1041.75"" fill=""green""/></svg>","76","stim_present","test","green","right","html-keyboard-response","214","234081","0.0-3.0-0.2-1.92","pb39","false"
"834.1800000052899","<svg height=""683"" width=""1389""><rect height=""68.3"" width=""68.3""y=""307.35""x=""1041.75"" fill=""red""/></svg>","76","stim_present","test","red","right","html-keyboard-response","216","235419","0.0-3.0-0.2-1.93","pb39","true"
"580.7949999871198","<svg height=""683"" width=""1389""><rect height=""68.3"" width=""68.3""y=""307.35""x=""660.35"" fill=""red""/></svg>","76","stim_present","test","red","middle","html-keyboard-response","218","236505","0.0-3.0-0.2-1.94","pb39","true"
"488.21999999927357","<svg height=""683"" width=""1389""><rect height=""68.3"" width=""68.3""y=""307.35""x=""347.25"" fill=""green""/></svg>","83","stim_present","test","green","left","html-keyboard-response","220","237500","0.0-3.0-0.2-1.95","pb39","true"
"1254.2599999869708","<svg height=""683"" width=""1389""><rect height=""68.3"" width=""68.3""y=""307.35""x=""660.35"" fill=""red""/></svg>","76","stim_present","test","red","middle","html-keyboard-response","222","239257","0.0-3.0-0.2-1.96","pb39","true"
"573.675000021467","<svg height=""683"" width=""1389""><rect height=""68.3"" width=""68.3""y=""307.35""x=""1041.75"" fill=""red""/></svg>","76","stim_present","test","red","right","html-keyboard-response","224","240332","0.0-3.0-0.2-1.97","pb39","true"
"626.2449999921955","<svg height=""683"" width=""1389""><rect height=""68.3"" width=""68.3""y=""307.35""x=""347.25"" fill=""red""/></svg>","76","stim_present","test","red","left","html-keyboard-response","226","241464","0.0-3.0-0.2-1.98","pb39","true"
"575.6300000066403","<svg height=""683"" width=""1389""><rect height=""68.3"" width=""68.3""y=""307.35""x=""347.25"" fill=""green""/></svg>","83","stim_present","test","green","left","html-keyboard-response","228","242543","0.0-3.0-0.2-1.99","pb39","true"
"343.61000001081266","<svg height=""683"" width=""1389""><rect height=""68.3"" width=""68.3""y=""307.35""x=""660.35"" fill=""green""/></svg>","83","stim_present","test","green","middle","html-keyboard-response","230","243392","0.0-3.0-0.2-1.100","pb39","true"
"382.81999999890104","<svg height=""683"" width=""1389""><rect height=""68.3"" width=""68.3""y=""307.35""x=""1041.75"" fill=""green""/></svg>","83","stim_present","test","green","right","html-keyboard-response","232","244280","0.0-3.0-0.2-1.101","pb39","true"
"385.4250000149477","<svg height=""683"" width=""1389""><rect height=""68.3"" width=""68.3""y=""307.35""x=""1041.75"" fill=""green""/></svg>","83","stim_present","test","green","right","html-keyboard-response","234","245167","0.0-3.0-0.2-1.102","pb39","true"
"695.7699999911711","<svg height=""683"" width=""1389""><rect height=""68.3"" width=""68.3""y=""307.35""x=""1041.75"" fill=""red""/></svg>","76","stim_present","test","red","right","html-keyboard-response","236","246369","0.0-3.0-0.2-1.103","pb39","true"
"860.9149999974761","<svg height=""683"" width=""1389""><rect height=""68.3"" width=""68.3""y=""307.35""x=""347.25"" fill=""red""/></svg>","76","stim_present","test","red","left","html-keyboard-response","238","247736","0.0-3.0-0.2-1.104","pb39","true"
"378.4750000049826","<svg height=""683"" width=""1389""><rect height=""68.3"" width=""68.3""y=""307.35""x=""660.35"" fill=""red""/></svg>","76","stim_present","test","red","middle","html-keyboard-response","240","248620","0.0-3.0-0.2-1.105","pb39","true"
"343.51500001503155","<svg height=""683"" width=""1389""><rect height=""68.3"" width=""68.3""y=""307.35""x=""347.25"" fill=""green""/></svg>","83","stim_present","test","green","left","html-keyboard-response","242","249468","0.0-3.0-0.2-1.106","pb39","true"
"395.00499999849126","<svg height=""683"" width=""1389""><rect height=""68.3"" width=""68.3""y=""307.35""x=""660.35"" fill=""green""/></svg>","76","stim_present","test","green","middle","html-keyboard-response","244","250369","0.0-3.0-0.2-1.107","pb39","false"
"589.4249999837484","<svg height=""683"" width=""1389""><rect height=""68.3"" width=""68.3""y=""307.35""x=""660.35"" fill=""red""/></svg>","76","stim_present","test","red","middle","html-keyboard-response","247","254090","0.0-3.0-0.3-1.108","pb39","true"
"447.74999999208376","<svg height=""683"" width=""1389""><rect height=""68.3"" width=""68.3""y=""307.35""x=""347.25"" fill=""green""/></svg>","83","stim_present","test","green","left","html-keyboard-response","249","255044","0.0-3.0-0.3-1.109","pb39","true"
"593.3999999833759","<svg height=""683"" width=""1389""><rect height=""68.3"" width=""68.3""y=""307.35""x=""660.35"" fill=""green""/></svg>","83","stim_present","test","green","middle","html-keyboard-response","251","256141","0.0-3.0-0.3-1.110","pb39","true"
"521.0499999811873","<svg height=""683"" width=""1389""><rect height=""68.3"" width=""68.3""y=""307.35""x=""1041.75"" fill=""red""/></svg>","76","stim_present","test","red","right","html-keyboard-response","253","257168","0.0-3.0-0.3-1.111","pb39","true"
"1025.7200000050943","<svg height=""683"" width=""1389""><rect height=""68.3"" width=""68.3""y=""307.35""x=""347.25"" fill=""red""/></svg>","76","stim_present","test","red","left","html-keyboard-response","255","258700","0.0-3.0-0.3-1.112","pb39","true"
"1213.8750000158325","<svg height=""683"" width=""1389""><rect height=""68.3"" width=""68.3""y=""307.35""x=""1041.75"" fill=""green""/></svg>","83","stim_present","test","green","right","html-keyboard-response","257","260418","0.0-3.0-0.3-1.113","pb39","true"
"479.14499999023974","<svg height=""683"" width=""1389""><rect height=""68.3"" width=""68.3""y=""307.35""x=""347.25"" fill=""red""/></svg>","76","stim_present","test","red","left","html-keyboard-response","259","261403","0.0-3.0-0.3-1.114","pb39","true"
"776.7099999764469","<svg height=""683"" width=""1389""><rect height=""68.3"" width=""68.3""y=""307.35""x=""1041.75"" fill=""red""/></svg>","76","stim_present","test","red","right","html-keyboard-response","261","262686","0.0-3.0-0.3-1.115","pb39","true"
"354.155000008177","<svg height=""683"" width=""1389""><rect height=""68.3"" width=""68.3""y=""307.35""x=""660.35"" fill=""red""/></svg>","76","stim_present","test","red","middle","html-keyboard-response","263","263545","0.0-3.0-0.3-1.116","pb39","true"
"432.26500001037493","<svg height=""683"" width=""1389""><rect height=""68.3"" width=""68.3""y=""307.35""x=""1041.75"" fill=""green""/></svg>","83","stim_present","test","green","right","html-keyboard-response","265","264479","0.0-3.0-0.3-1.117","pb39","true"
"609.9499999836553","<svg height=""683"" width=""1389""><rect height=""68.3"" width=""68.3""y=""307.35""x=""347.25"" fill=""green""/></svg>","83","stim_present","test","green","left","html-keyboard-response","267","265594","0.0-3.0-0.3-1.118","pb39","true"
"338.0349999933969","<svg height=""683"" width=""1389""><rect height=""68.3"" width=""68.3""y=""307.35""x=""660.35"" fill=""green""/></svg>","83","stim_present","test","green","middle","html-keyboard-response","269","266435","0.0-3.0-0.3-1.119","pb39","true"
"449.1799999959767","<svg height=""683"" width=""1389""><rect height=""68.3"" width=""68.3""y=""307.35""x=""347.25"" fill=""green""/></svg>","83","stim_present","test","green","left","html-keyboard-response","271","267390","0.0-3.0-0.3-1.120","pb39","true"
"360.71999999694526","<svg height=""683"" width=""1389""><rect height=""68.3"" width=""68.3""y=""307.35""x=""1041.75"" fill=""red""/></svg>","76","stim_present","test","red","right","html-keyboard-response","273","268256","0.0-3.0-0.3-1.121","pb39","true"
"574.0200000000186","<svg height=""683"" width=""1389""><rect height=""68.3"" width=""68.3""y=""307.35""x=""1041.75"" fill=""green""/></svg>","83","stim_present","test","green","right","html-keyboard-response","275","269336","0.0-3.0-0.3-1.122","pb39","true"
"447.16999999945983","<svg height=""683"" width=""1389""><rect height=""68.3"" width=""68.3""y=""307.35""x=""660.35"" fill=""red""/></svg>","76","stim_present","test","red","middle","html-keyboard-response","277","270290","0.0-3.0-0.3-1.123","pb39","true"
"612.1700000076089","<svg height=""683"" width=""1389""><rect height=""68.3"" width=""68.3""y=""307.35""x=""347.25"" fill=""red""/></svg>","76","stim_present","test","red","left","html-keyboard-response","279","271408","0.0-3.0-0.3-1.124","pb39","true"
"407.8450000088196","<svg height=""683"" width=""1389""><rect height=""68.3"" width=""68.3""y=""307.35""x=""660.35"" fill=""green""/></svg>","83","stim_present","test","green","middle","html-keyboard-response","281","272321","0.0-3.0-0.3-1.125","pb39","true"
"445.464999997057","<svg height=""683"" width=""1389""><rect height=""68.3"" width=""68.3""y=""307.35""x=""347.25"" fill=""red""/></svg>","83","stim_present","test","red","left","html-keyboard-response","283","273269","0.0-3.0-0.3-1.126","pb39","false"
"351.07000000425614","<svg height=""683"" width=""1389""><rect height=""68.3"" width=""68.3""y=""307.35""x=""347.25"" fill=""green""/></svg>","83","stim_present","test","green","left","html-keyboard-response","285","274126","0.0-3.0-0.3-1.127","pb39","true"
"429.0050000126939","<svg height=""683"" width=""1389""><rect height=""68.3"" width=""68.3""y=""307.35""x=""660.35"" fill=""red""/></svg>","76","stim_present","test","red","middle","html-keyboard-response","287","275061","0.0-3.0-0.3-1.128","pb39","true"
"529.1200000210665","<svg height=""683"" width=""1389""><rect height=""68.3"" width=""68.3""y=""307.35""x=""1041.75"" fill=""green""/></svg>","83","stim_present","test","green","right","html-keyboard-response","289","276093","0.0-3.0-0.3-1.129","pb39","true"
"1151.6450000053737","<svg height=""683"" width=""1389""><rect height=""68.3"" width=""68.3""y=""307.35""x=""660.35"" fill=""green""/></svg>","83","stim_present","test","green","middle","html-keyboard-response","291","277750","0.0-3.0-0.3-1.130","pb39","true"
"989.1549999883864","<svg height=""683"" width=""1389""><rect height=""68.3"" width=""68.3""y=""307.35""x=""1041.75"" fill=""red""/></svg>","76","stim_present","test","red","right","html-keyboard-response","293","279241","0.0-3.0-0.3-1.131","pb39","true"
"524.6950000000652","<svg height=""683"" width=""1389""><rect height=""68.3"" width=""68.3""y=""307.35""x=""347.25"" fill=""red""/></svg>","76","stim_present","test","red","left","html-keyboard-response","295","280272","0.0-3.0-0.3-1.132","pb39","true"
"508.3699999959208","<svg height=""683"" width=""1389""><rect height=""68.3"" width=""68.3""y=""307.35""x=""1041.75"" fill=""green""/></svg>","83","stim_present","test","green","right","html-keyboard-response","297","281286","0.0-3.0-0.3-1.133","pb39","true"
"415.2099999773782","<svg height=""683"" width=""1389""><rect height=""68.3"" width=""68.3""y=""307.35""x=""347.25"" fill=""green""/></svg>","83","stim_present","test","green","left","html-keyboard-response","299","282207","0.0-3.0-0.3-1.134","pb39","true"
"395.19000001018867","<svg height=""683"" width=""1389""><rect height=""68.3"" width=""68.3""y=""307.35""x=""660.35"" fill=""green""/></svg>","83","stim_present","test","green","middle","html-keyboard-response","301","283108","0.0-3.0-0.3-1.135","pb39","true"
"387.87999999476597","<svg height=""683"" width=""1389""><rect height=""68.3"" width=""68.3""y=""307.35""x=""1041.75"" fill=""red""/></svg>","76","stim_present","test","red","right","html-keyboard-response","303","284002","0.0-3.0-0.3-1.136","pb39","true"
"464.09500000299886","<svg height=""683"" width=""1389""><rect height=""68.3"" width=""68.3""y=""307.35""x=""660.35"" fill=""red""/></svg>","76","stim_present","test","red","middle","html-keyboard-response","305","284972","0.0-3.0-0.3-1.137","pb39","true"
"400.2150000014808","<svg height=""683"" width=""1389""><rect height=""68.3"" width=""68.3""y=""307.35""x=""347.25"" fill=""green""/></svg>","83","stim_present","test","green","left","html-keyboard-response","307","285878","0.0-3.0-0.3-1.138","pb39","true"
"623.0149999901187","<svg height=""683"" width=""1389""><rect height=""68.3"" width=""68.3""y=""307.35""x=""660.35"" fill=""green""/></svg>","83","stim_present","test","green","middle","html-keyboard-response","309","287007","0.0-3.0-0.3-1.139","pb39","true"
"580.8050000050571","<svg height=""683"" width=""1389""><rect height=""68.3"" width=""68.3""y=""307.35""x=""347.25"" fill=""red""/></svg>","76","stim_present","test","red","left","html-keyboard-response","311","288094","0.0-3.0-0.3-1.140","pb39","true"
"597.0350000134204","<svg height=""683"" width=""1389""><rect height=""68.3"" width=""68.3""y=""307.35""x=""1041.75"" fill=""green""/></svg>","76","stim_present","test","green","right","html-keyboard-response","313","289197","0.0-3.0-0.3-1.141","pb39","false"
"580.6750000047032","<svg height=""683"" width=""1389""><rect height=""68.3"" width=""68.3""y=""307.35""x=""660.35"" fill=""red""/></svg>","76","stim_present","test","red","middle","html-keyboard-response","315","290284","0.0-3.0-0.3-1.142","pb39","true"
"777.6249999878928","<svg height=""683"" width=""1389""><rect height=""68.3"" width=""68.3""y=""307.35""x=""1041.75"" fill=""red""/></svg>","83","stim_present","test","red","right","html-keyboard-response","317","291565","0.0-3.0-0.3-1.143","pb39","false"
